timestamp, accel_x, accel_y, accel_z, gyro_x, gyro_y, gyro_z
1549475327496,0.008057,-0.105103,-0.994080,0.060976,-0.198171,0.030488
1549475327504,0.009399,-0.106445,-1.006287,0.060976,-0.213415,0.015244
1549475327511,0.009094,-0.106140,-1.002747,0.091463,-0.213415,0.000000
1549475327526,0.008484,-0.106750,-1.002258,0.091463,-0.228659,0.045732
1549475327534,0.008545,-0.105713,-1.000122,0.091463,-0.213415,0.015244
1549475327541,0.011230,-0.106201,-0.998230,0.106707,-0.198171,0.015244
1549475327556,0.010986,-0.104858,-0.997681,0.076220,-0.228659,0.030488
1549475327564,0.008179,-0.105591,-0.999023,0.076220,-0.228659,0.030488
1549475327571,0.009216,-0.107300,-1.001770,0.076220,-0.213415,0.030488
1549475327586,0.007202,-0.106873,-1.000610,0.091463,-0.198171,0.030488
1549475327594,0.008362,-0.106323,-1.001892,0.076220,-0.198171,0.030488
1549475327601,0.012390,-0.104553,-1.002563,0.091463,-0.228659,0.045732
1549475327616,0.009216,-0.106567,-1.003113,0.091463,-0.243902,0.045732
1549475327624,0.007690,-0.106323,-0.999817,0.076220,-0.213415,0.030488
1549475327631,0.008972,-0.107849,-0.999573,0.060976,-0.198171,0.030488
1549475327646,0.009888,-0.105591,-1.001465,0.091463,-0.198171,0.030488
1549475327654,0.010071,-0.105530,-1.000854,0.106707,-0.213415,0.030488
1549475327661,0.008911,-0.105103,-1.002014,0.091463,-0.198171,0.015244
1549475327676,0.009216,-0.107483,-1.000427,0.076220,-0.228659,0.015244
1549475327684,0.008667,-0.106689,-1.001526,0.076220,-0.228659,0.030488
1549475327691,0.008118,-0.106567,-1.001587,0.076220,-0.213415,0.045732
1549475327706,0.009705,-0.107910,-1.001648,0.076220,-0.213415,0.030488
1549475327714,0.010193,-0.106201,-1.001526,0.076220,-0.213415,0.015244
1549475327721,0.010559,-0.106079,-1.001587,0.076220,-0.198171,0.030488
1549475327736,0.008545,-0.107361,-1.000427,0.106707,-0.198171,0.030488
1549475327744,0.007385,-0.106750,-1.000122,0.091463,-0.213415,0.015244
1549475327751,0.007935,-0.106384,-1.000305,0.091463,-0.198171,0.030488
1549475327766,0.010864,-0.106628,-0.998230,0.091463,-0.213415,0.030488
1549475327774,0.009949,-0.107666,-0.999390,0.091463,-0.213415,0.030488
1549475327781,0.006836,-0.106262,-0.998962,0.091463,-0.213415,0.030488
1549475327796,0.010071,-0.104736,-1.000977,0.091463,-0.198171,0.030488
1549475327810,0.010925,-0.106873,-0.998352,0.060976,-0.198171,0.030488
1549475327817,0.009399,-0.106201,-1.000183,0.091463,-0.213415,0.015244
1549475327826,0.008057,-0.106628,-0.999573,0.076220,-0.213415,0.015244
1549475327840,0.007263,-0.105713,-0.999939,0.060976,-0.198171,0.045732
1549475327848,0.008972,-0.105652,-1.000122,0.091463,-0.198171,0.030488
1549475327856,0.009705,-0.105469,-0.999756,0.091463,-0.213415,0.030488
1549475327864,0.008240,-0.106934,-0.998291,0.091463,-0.228659,0.030488
1549475327871,0.007812,-0.107178,-1.000122,0.076220,-0.198171,0.030488
1549475327886,0.010498,-0.106506,-1.000366,0.076220,-0.182927,0.015244
1549475327894,0.010498,-0.107666,-1.000183,0.091463,-0.198171,0.045732
1549475327901,0.008606,-0.108032,-1.000061,0.091463,-0.213415,0.045732
1549475327923,0.008789,-0.105652,-1.002625,0.060976,-0.228659,0.030488
1549475327930,0.007690,-0.104614,-1.000183,0.076220,-0.213415,0.030488
1549475327938,0.010376,-0.105713,-1.000061,0.091463,-0.182927,0.030488
1549475327946,0.010498,-0.105164,-0.999695,0.076220,-0.213415,0.030488
1549475327954,0.008362,-0.105835,-0.997986,0.106707,-0.198171,0.000000
1549475327961,0.010315,-0.106323,-1.000305,0.076220,-0.198171,0.030488
1549475327976,0.008057,-0.105042,-0.999390,0.091463,-0.213415,0.015244
1549475327984,0.009583,-0.108093,-0.998840,0.091463,-0.182927,0.015244
1549475327991,0.007812,-0.106384,-1.000488,0.091463,-0.213415,0.030488
1549475328006,0.008240,-0.105408,-0.999268,0.060976,-0.213415,0.015244
1549475328014,0.007629,-0.107300,-0.999878,0.106707,-0.213415,0.015244
1549475328028,0.009521,-0.106995,-1.000122,0.091463,-0.228659,0.015244
1549475328042,0.009399,-0.105652,-1.000122,0.076220,-0.213415,0.045732
1549475328050,0.009521,-0.106934,-1.000977,0.076220,-0.198171,0.030488
1549475328057,0.007446,-0.106995,-1.000793,0.076220,-0.198171,0.030488
1549475328066,0.008667,-0.104004,-1.000061,0.060976,-0.213415,0.030488
1549475328074,0.009460,-0.106689,-1.002441,0.076220,-0.213415,0.030488
1549475328081,0.008606,-0.106812,-1.001160,0.076220,-0.228659,0.030488
1549475328096,0.008667,-0.105835,-0.999390,0.106707,-0.213415,0.030488
1549475328104,0.009521,-0.108093,-0.999390,0.106707,-0.213415,0.030488
1549475328111,0.009888,-0.105774,-1.000122,0.076220,-0.213415,0.015244
1549475328126,0.010925,-0.106018,-1.002625,0.076220,-0.213415,0.030488
1549475328134,0.009827,-0.106384,-0.998962,0.060976,-0.213415,0.030488
1549475328141,0.007019,-0.106140,-0.999207,0.076220,-0.213415,0.030488
1549475328163,0.009033,-0.107239,-1.000488,0.091463,-0.213415,0.030488
1549475328170,0.010071,-0.105896,-1.000061,0.045732,-0.228659,0.030488
1549475328178,0.010132,-0.105347,-0.998962,0.060976,-0.213415,0.030488
1549475328186,0.009338,-0.106140,-1.000366,0.076220,-0.198171,0.045732
1549475328194,0.008545,-0.106384,-0.999817,0.076220,-0.198171,0.045732
1549475328201,0.010132,-0.105896,-1.000427,0.091463,-0.228659,0.030488
1549475328216,0.010925,-0.104248,-1.000122,0.091463,-0.228659,0.030488
1549475328224,0.009033,-0.105591,-1.001038,0.091463,-0.228659,0.015244
1549475328231,0.009766,-0.106018,-1.000244,0.091463,-0.228659,0.015244
1549475328246,0.009033,-0.107849,-1.001831,0.091463,-0.198171,0.030488
1549475328254,0.009094,-0.109131,-0.999939,0.106707,-0.213415,0.045732
1549475328261,0.007996,-0.105286,-1.000000,0.106707,-0.213415,0.015244
1549475328276,0.008850,-0.107422,-1.001770,0.091463,-0.198171,0.015244
1549475328284,0.009583,-0.105530,-0.998230,0.091463,-0.228659,0.030488
1549475328291,0.008484,-0.105408,-1.000427,0.091463,-0.198171,0.030488
1549475328306,0.010132,-0.105774,-1.000916,0.106707,-0.198171,0.015244
1549475328314,0.009644,-0.105408,-0.999817,0.121951,-0.198171,0.015244
1549475328321,0.008545,-0.107422,-0.999329,0.091463,-0.213415,0.030488
1549475328336,0.010620,-0.105774,-0.996948,0.091463,-0.228659,0.000000
1549475328344,0.007996,-0.107727,-1.000977,0.076220,-0.198171,0.015244
1549475328351,0.008545,-0.108276,-0.999573,0.091463,-0.198171,0.045732
1549475328366,0.007019,-0.107117,-1.000793,0.091463,-0.228659,0.045732
1549475328374,0.009399,-0.105713,-1.002014,0.076220,-0.213415,0.030488
1549475328381,0.009827,-0.106995,-0.998413,0.060976,-0.182927,0.030488
1549475328396,0.010376,-0.105652,-0.998535,0.091463,-0.213415,0.030488
1549475328404,0.008789,-0.105896,-0.999451,0.060976,-0.213415,0.015244
1549475328411,0.008911,-0.106018,-0.996948,0.060976,-0.213415,0.030488
1549475328426,0.008301,-0.107605,-1.000366,0.076220,-0.213415,0.030488
1549475328434,0.008911,-0.105225,-1.002075,0.076220,-0.213415,0.030488
1549475328441,0.008484,-0.105530,-0.999634,0.091463,-0.198171,0.015244
1549475328456,0.007751,-0.106506,-0.999634,0.091463,-0.198171,0.015244
1549475328464,0.008362,-0.104187,-0.998901,0.076220,-0.198171,0.030488
1549475328479,0.009094,-0.105042,-0.998291,0.060976,-0.198171,0.030488
1549475328486,0.007629,-0.105225,-0.997253,0.045732,-0.198171,0.045732
1549475328494,0.007812,-0.105591,-1.000122,0.091463,-0.213415,0.030488
1549475328501,0.008240,-0.106201,-1.000427,0.091463,-0.243902,0.030488
1549475328516,0.008362,-0.107422,-0.999512,0.076220,-0.213415,0.015244
1549475328524,0.010010,-0.107300,-0.999695,0.076220,-0.213415,0.030488
1549475328531,0.008789,-0.104919,-1.000732,0.076220,-0.213415,0.030488
1549475328552,0.008606,-0.106140,-0.999573,0.060976,-0.213415,0.030488
1549475328560,0.008789,-0.106812,-0.997742,0.091463,-0.228659,0.030488
1549475328567,0.009827,-0.105652,-0.998657,0.091463,-0.213415,0.030488
1549475328576,0.009949,-0.105164,-0.998718,0.091463,-0.213415,0.030488
1549475328584,0.009460,-0.106384,-1.002502,0.091463,-0.213415,0.045732
1549475328591,0.007629,-0.106812,-0.998047,0.091463,-0.213415,0.030488
1549475328606,0.007812,-0.105347,-0.999573,0.091463,-0.182927,0.030488
1549475328614,0.008850,-0.106873,-0.998657,0.091463,-0.213415,0.045732
1549475328621,0.009155,-0.106384,-1.000427,0.106707,-0.213415,0.045732
1549475328636,0.009338,-0.105591,-1.001038,0.091463,-0.228659,0.015244
1549475328650,0.008301,-0.106873,-1.001648,0.076220,-0.213415,0.030488
1549475328658,0.008179,-0.107056,-0.999146,0.060976,-0.213415,0.015244
1549475328666,0.009338,-0.106445,-0.997681,0.060976,-0.213415,0.015244
1549475328674,0.010193,-0.106323,-0.998596,0.091463,-0.228659,0.030488
1549475328681,0.009338,-0.107727,-1.000122,0.091463,-0.213415,0.030488
1549475328696,0.010071,-0.107422,-0.997925,0.091463,-0.213415,0.015244
1549475328704,0.007385,-0.105713,-0.997314,0.091463,-0.228659,0.015244
1549475328711,0.008728,-0.106323,-0.999084,0.091463,-0.213415,0.030488
1549475328726,0.010315,-0.107544,-0.997009,0.091463,-0.198171,0.030488
1549475328734,0.008789,-0.106079,-1.000183,0.091463,-0.213415,0.030488
1549475328741,0.009521,-0.106689,-0.999939,0.076220,-0.228659,0.000000
1549475328756,0.011230,-0.105774,-0.998169,0.091463,-0.198171,0.000000
1549475328764,0.008911,-0.107117,-0.998901,0.091463,-0.167683,0.015244
1549475328771,0.009338,-0.107422,-1.001892,0.076220,-0.228659,0.015244
1549475328786,0.009033,-0.104126,-1.000366,0.091463,-0.228659,0.015244
1549475328794,0.009705,-0.104187,-0.999268,0.091463,-0.213415,0.030488
1549475328801,0.009155,-0.105530,-0.998779,0.121951,-0.213415,0.030488
1549475328816,0.011414,-0.106445,-0.999634,0.106707,-0.213415,0.015244
1549475328824,0.010315,-0.108032,-0.999634,0.091463,-0.213415,0.015244
1549475328831,0.008362,-0.107239,-1.000549,0.076220,-0.213415,0.015244
1549475328846,0.008606,-0.106262,-0.998901,0.076220,-0.198171,0.030488
1549475328854,0.009094,-0.107300,-0.996765,0.076220,-0.213415,0.030488
1549475328861,0.009155,-0.106140,-0.999084,0.091463,-0.228659,0.015244
1549475328876,0.007080,-0.107361,-0.998596,0.076220,-0.213415,0.030488
1549475328884,0.009338,-0.106384,-1.000427,0.076220,-0.228659,0.030488
1549475328891,0.010315,-0.106201,-0.998291,0.106707,-0.213415,0.015244
1549475328906,0.010010,-0.106018,-0.998291,0.091463,-0.213415,0.015244
1549475328914,0.009399,-0.106628,-0.998596,0.076220,-0.213415,0.015244
1549475328921,0.011169,-0.104980,-0.999207,0.091463,-0.228659,0.015244
1549475328936,0.008850,-0.105774,-1.001343,0.076220,-0.228659,0.030488
1549475328944,0.008179,-0.108154,-0.999329,0.106707,-0.213415,0.045732
1549475328958,0.008423,-0.105042,-0.999390,0.106707,-0.213415,0.030488
1549475328966,0.009155,-0.106262,-0.998901,0.091463,-0.228659,0.030488
1549475328974,0.009155,-0.106445,-0.996948,0.076220,-0.213415,0.015244
1549475328981,0.010071,-0.106506,-0.999207,0.091463,-0.228659,0.015244
1549475328996,0.008667,-0.105469,-0.999146,0.091463,-0.213415,0.015244
1549475329004,0.007874,-0.106812,-1.000122,0.076220,-0.213415,0.015244
1549475329011,0.010254,-0.106873,-0.998047,0.076220,-0.213415,0.030488
1549475329034,0.008545,-0.107422,-1.001892,0.091463,-0.213415,0.030488
1549475329041,0.009399,-0.106079,-1.000854,0.091463,-0.213415,0.030488
1549475329049,0.011902,-0.105652,-0.997009,0.091463,-0.228659,0.045732
1549475329056,0.008850,-0.107117,-0.998230,0.076220,-0.198171,0.015244
1549475329064,0.010498,-0.105713,-0.999390,0.060976,-0.198171,0.030488
1549475329071,0.010864,-0.106628,-1.000488,0.060976,-0.228659,0.045732
1549475329086,0.010376,-0.106506,-1.000793,0.091463,-0.243902,0.045732
1549475329094,0.009888,-0.104248,-0.997437,0.091463,-0.228659,0.030488
1549475329101,0.009094,-0.107910,-1.001404,0.091463,-0.213415,0.030488
1549475329116,0.010010,-0.108276,-1.000549,0.091463,-0.213415,0.030488
1549475329124,0.010376,-0.106873,-0.998047,0.076220,-0.213415,0.015244
1549475329131,0.008545,-0.107727,-0.998535,0.091463,-0.213415,0.000000
1549475329146,0.009460,-0.106140,-0.998535,0.106707,-0.228659,0.030488
1549475329154,0.008362,-0.106506,-1.001099,0.091463,-0.213415,0.030488
1549475329161,0.009949,-0.105530,-0.999756,0.121951,-0.213415,0.045732
1549475329176,0.010010,-0.104736,-0.999512,0.091463,-0.213415,0.030488
1549475329184,0.009827,-0.107971,-0.998169,0.091463,-0.228659,0.015244
1549475329191,0.007812,-0.107910,-1.000549,0.091463,-0.228659,0.015244
1549475329206,0.009766,-0.106567,-0.996948,0.091463,-0.243902,0.015244
1549475329214,0.008484,-0.106934,-0.997681,0.106707,-0.228659,0.015244
1549475329227,0.009216,-0.106384,-0.996887,0.091463,-0.213415,0.030488
1549475329236,0.009583,-0.106018,-0.998047,0.091463,-0.228659,0.030488
1549475329244,0.008179,-0.107849,-0.999573,0.060976,-0.213415,0.030488
1549475329251,0.009827,-0.107178,-0.998535,0.045732,-0.228659,0.030488
1549475329266,0.009521,-0.106812,-0.997559,0.060976,-0.228659,0.015244
1549475329274,0.009827,-0.107605,-1.000366,0.091463,-0.228659,0.030488
1549475329281,0.008789,-0.106995,-0.999817,0.091463,-0.213415,0.030488
1549475329296,0.009460,-0.105713,-0.998230,0.076220,-0.213415,0.015244
1549475329304,0.009094,-0.108276,-1.000549,0.091463,-0.228659,0.030488
1549475329311,0.009583,-0.107483,-0.999023,0.091463,-0.198171,0.015244
1549475329326,0.008484,-0.106384,-0.999451,0.091463,-0.213415,0.030488
1549475329334,0.008423,-0.106201,-0.999329,0.091463,-0.213415,0.030488
1549475329341,0.009399,-0.106323,-0.998901,0.060976,-0.213415,0.015244
1549475329356,0.009766,-0.106995,-0.998962,0.091463,-0.213415,0.030488
1549475329364,0.009338,-0.107056,-0.996765,0.106707,-0.213415,0.030488
1549475329377,0.008362,-0.106812,-0.999023,0.076220,-0.213415,0.000000
1549475329387,0.007996,-0.106384,-1.000183,0.060976,-0.213415,0.000000
1549475329398,0.007874,-0.105774,-0.999268,0.076220,-0.213415,0.015244
1549475329402,0.009827,-0.106262,-0.998291,0.060976,-0.198171,0.045732
1549475329443,0.010193,-0.105286,-1.000122,0.060976,-0.213415,0.030488
1549475329448,0.009033,-0.105896,-1.000916,0.076220,-0.228659,0.015244
1549475329450,0.008667,-0.107056,-1.000183,0.091463,-0.243902,0.015244
1549475329452,0.007751,-0.106140,-1.000488,0.076220,-0.213415,0.015244
1549475329455,0.010620,-0.106750,-1.000610,0.076220,-0.213415,0.030488
1549475329461,0.009094,-0.106262,-0.999023,0.076220,-0.228659,0.015244
1549475329483,0.008301,-0.105774,-0.999268,0.076220,-0.213415,0.030488
1549475329491,0.009888,-0.105774,-0.997803,0.076220,-0.228659,0.045732
1549475329498,0.008362,-0.104858,-0.998901,0.091463,-0.213415,0.030488
1549475329514,0.008850,-0.106384,-1.000000,0.106707,-0.198171,0.015244
1549475329521,0.009583,-0.107483,-0.997986,0.091463,-0.213415,0.015244
1549475329529,0.008667,-0.106628,-0.998657,0.091463,-0.213415,0.015244
1549475329536,0.009277,-0.108215,-0.996216,0.076220,-0.213415,0.015244
1549475329544,0.009216,-0.107422,-0.998108,0.091463,-0.228659,0.015244
1549475329551,0.009521,-0.106445,-1.001892,0.106707,-0.228659,0.015244
1549475329566,0.009094,-0.105469,-0.998840,0.060976,-0.213415,0.030488
1549475329574,0.007385,-0.105591,-0.998474,0.091463,-0.213415,0.030488
1549475329582,0.009766,-0.106750,-1.000671,0.076220,-0.213415,0.015244
1549475329600,0.008484,-0.106628,-0.999817,0.045732,-0.213415,0.030488
1549475329605,0.010315,-0.106995,-0.998962,0.076220,-0.228659,0.030488
1549475329612,0.010193,-0.108093,-1.001465,0.076220,-0.213415,0.015244
1549475329642,0.011658,-0.106567,-0.999817,0.091463,-0.213415,0.030488
1549475329645,0.007935,-0.106079,-0.999207,0.076220,-0.228659,0.030488
1549475329648,0.008911,-0.107056,-0.999878,0.060976,-0.198171,0.015244
1549475329656,0.007507,-0.106384,-0.998291,0.091463,-0.213415,0.015244
1549475329670,0.007385,-0.105957,-0.999084,0.091463,-0.213415,0.015244
1549475329677,0.010132,-0.106812,-0.999146,0.091463,-0.228659,0.015244
1549475329686,0.011108,-0.107300,-0.995239,0.091463,-0.213415,0.000000
1549475329701,0.009277,-0.107727,-0.998474,0.076220,-0.198171,0.030488
1549475329708,0.008545,-0.107178,-1.000305,0.076220,-0.198171,0.030488
1549475329718,0.009827,-0.107239,-0.998962,0.091463,-0.228659,0.015244
1549475329737,0.009094,-0.107361,-0.997559,0.076220,-0.198171,0.015244
1549475329737,0.008362,-0.106079,-0.997864,0.091463,-0.198171,0.015244
1549475329747,0.011475,-0.106812,-0.999268,0.106707,-0.228659,0.030488
1549475329754,0.007935,-0.109253,-0.999451,0.106707,-0.228659,0.030488
1549475329763,0.009521,-0.106445,-1.000244,0.076220,-0.228659,0.015244
1549475329776,0.010315,-0.108337,-0.999329,0.091463,-0.198171,0.015244
1549475329787,0.010071,-0.107361,-0.998047,0.076220,-0.213415,0.015244
1549475329798,0.009521,-0.106934,-1.000061,0.091463,-0.228659,0.030488
1549475329806,0.010376,-0.106567,-1.001465,0.076220,-0.243902,0.030488
1549475329814,0.007568,-0.106262,-0.997498,0.091463,-0.213415,0.030488
1549475329821,0.007812,-0.104370,-0.999451,0.106707,-0.213415,0.045732
1549475329836,0.009766,-0.105652,-1.001221,0.091463,-0.198171,0.045732
1549475329853,0.009216,-0.105713,-0.997253,0.060976,-0.213415,0.030488
1549475329853,0.007507,-0.105896,-0.999084,0.076220,-0.198171,0.030488
1549475329866,0.007935,-0.106812,-0.999817,0.091463,-0.213415,0.015244
1549475329874,0.008667,-0.107300,-0.998108,0.106707,-0.228659,0.030488
1549475329881,0.007690,-0.104919,-0.999207,0.091463,-0.182927,0.030488
1549475329896,0.007141,-0.106689,-0.999817,0.121951,-0.213415,0.030488
1549475329910,0.008545,-0.105774,-0.997498,0.076220,-0.228659,0.015244
1549475329917,0.008423,-0.104492,-0.997620,0.076220,-0.213415,0.015244
1549475329926,0.007935,-0.106567,-0.999023,0.106707,-0.213415,0.030488
1549475329934,0.009583,-0.108032,-0.999939,0.106707,-0.213415,0.045732
1549475329941,0.008850,-0.107056,-0.999207,0.091463,-0.213415,0.030488
1549475329956,0.010071,-0.106689,-0.999084,0.091463,-0.213415,0.030488
1549475329966,0.008850,-0.106934,-0.998474,0.076220,-0.213415,0.045732
1549475329971,0.008789,-0.107239,-1.000183,0.060976,-0.228659,0.030488
1549475329986,0.008362,-0.105652,-0.997620,0.076220,-0.228659,0.030488
1549475329994,0.007812,-0.106567,-0.998535,0.091463,-0.228659,0.045732
1549475330001,0.009277,-0.107178,-0.998596,0.106707,-0.228659,0.015244
1549475330016,0.009583,-0.108643,-0.998962,0.121951,-0.228659,0.030488
1549475330024,0.007141,-0.107361,-0.999756,0.076220,-0.228659,0.015244
1549475330031,0.008545,-0.107056,-0.999146,0.076220,-0.198171,0.000000
1549475330046,0.010620,-0.107056,-0.999756,0.076220,-0.228659,0.030488
1549475330054,0.008911,-0.106689,-0.999146,0.076220,-0.243902,0.030488
1549475330068,0.007202,-0.107117,-0.996704,0.076220,-0.228659,0.015244
1549475330076,0.009460,-0.106934,-0.999573,0.076220,-0.213415,0.015244
1549475330086,0.010681,-0.104492,-1.000671,0.076220,-0.213415,0.045732
1549475330091,0.009033,-0.106018,-1.001404,0.076220,-0.213415,0.030488
1549475330106,0.008850,-0.108643,-0.998413,0.076220,-0.213415,0.015244
1549475330120,0.010925,-0.107361,-0.998474,0.091463,-0.213415,0.030488
1549475330128,0.009827,-0.104797,-0.999634,0.076220,-0.228659,0.030488
1549475330136,0.008423,-0.105591,-0.999451,0.076220,-0.213415,0.030488
1549475330145,0.007996,-0.105713,-0.998718,0.076220,-0.213415,0.030488
1549475330151,0.008362,-0.105225,-0.998413,0.091463,-0.228659,0.015244
1549475330166,0.008789,-0.105225,-0.997131,0.091463,-0.213415,0.030488
1549475330174,0.009338,-0.107117,-0.998657,0.076220,-0.213415,0.030488
1549475330181,0.008301,-0.106812,-0.998657,0.076220,-0.213415,0.030488
1549475330196,0.008728,-0.107483,-0.997009,0.076220,-0.213415,0.030488
1549475330204,0.009216,-0.107178,-0.999634,0.076220,-0.213415,0.030488
1549475330211,0.010193,-0.106262,-0.998901,0.091463,-0.198171,0.030488
1549475330226,0.008362,-0.106689,-0.999329,0.076220,-0.213415,0.030488
1549475330234,0.008911,-0.106018,-0.998718,0.076220,-0.213415,0.015244
1549475330241,0.008606,-0.106079,-0.998901,0.091463,-0.198171,0.030488
1549475330262,0.009705,-0.106079,-0.996643,0.060976,-0.228659,0.030488
1549475330270,0.009216,-0.106445,-0.999023,0.076220,-0.228659,0.015244
1549475330277,0.009888,-0.107544,-1.000732,0.091463,-0.228659,0.015244
1549475330286,0.010681,-0.105286,-1.000854,0.091463,-0.213415,0.045732
1549475330294,0.008484,-0.105469,-1.000122,0.076220,-0.228659,0.030488
1549475330301,0.007507,-0.105042,-0.999329,0.091463,-0.198171,0.030488
1549475330316,0.008118,-0.107178,-1.000488,0.106707,-0.182927,0.030488
1549475330323,0.008789,-0.107483,-0.998718,0.121951,-0.213415,0.045732
1549475330331,0.009705,-0.106201,-0.998413,0.091463,-0.213415,0.030488
1549475330346,0.008423,-0.107483,-0.997620,0.091463,-0.198171,0.045732
1549475330354,0.006897,-0.104309,-1.000977,0.076220,-0.198171,0.030488
1549475330361,0.008606,-0.105469,-0.997070,0.091463,-0.198171,0.030488
1549475330376,0.009155,-0.108337,-0.997070,0.091463,-0.213415,0.030488
1549475330384,0.008850,-0.106323,-0.998047,0.091463,-0.228659,0.015244
1549475330391,0.010010,-0.105774,-1.000854,0.091463,-0.228659,0.015244
1549475330406,0.009644,-0.107117,-0.998047,0.076220,-0.213415,0.030488
1549475330414,0.008606,-0.107422,-0.999268,0.060976,-0.213415,0.030488
1549475330421,0.009155,-0.105225,-0.997681,0.091463,-0.228659,0.030488
1549475330436,0.011353,-0.107300,-0.998901,0.106707,-0.213415,0.045732
1549475330444,0.007690,-0.107178,-1.002441,0.091463,-0.228659,0.045732
1549475330451,0.009216,-0.106506,-1.001099,0.076220,-0.243902,0.030488
1549475330466,0.010010,-0.107239,-1.001953,0.076220,-0.228659,0.030488
1549475330474,0.009216,-0.105835,-1.001709,0.091463,-0.198171,0.030488
1549475330481,0.010010,-0.106262,-0.998840,0.060976,-0.198171,0.030488
1549475330496,0.008301,-0.106567,-1.000061,0.076220,-0.228659,0.000000
1549475330504,0.006836,-0.106445,-1.000610,0.060976,-0.198171,0.045732
1549475330511,0.009155,-0.106628,-0.999207,0.076220,-0.213415,0.045732
1549475330526,0.009399,-0.106323,-0.997559,0.091463,-0.213415,0.030488
1549475330534,0.010559,-0.105835,-0.998657,0.091463,-0.213415,0.030488
1549475330548,0.008362,-0.108582,-0.999084,0.091463,-0.228659,0.015244
1549475330556,0.006470,-0.106567,-1.000061,0.091463,-0.228659,0.045732
1549475330564,0.007751,-0.106018,-0.996643,0.091463,-0.213415,0.045732
1549475330571,0.010193,-0.107300,-1.000854,0.060976,-0.198171,0.045732
1549475330586,0.009094,-0.105591,-1.000427,0.076220,-0.213415,0.030488
1549475330594,0.008362,-0.106262,-0.999756,0.076220,-0.198171,0.015244
1549475330601,0.008240,-0.106873,-0.999695,0.106707,-0.213415,0.030488
1549475330616,0.009583,-0.107605,-0.999390,0.091463,-0.213415,0.030488
1549475330624,0.007935,-0.105896,-0.999390,0.060976,-0.198171,0.030488
1549475330631,0.008667,-0.107239,-0.999207,0.106707,-0.228659,0.030488
1549475330646,0.008362,-0.106750,-0.998169,0.091463,-0.213415,0.045732
1549475330654,0.007690,-0.106201,-0.998535,0.076220,-0.228659,0.045732
1549475330661,0.009644,-0.107666,-0.998962,0.091463,-0.213415,0.030488
1549475330676,0.008240,-0.107849,-0.998840,0.137195,-0.213415,0.030488
1549475330684,0.010071,-0.106873,-0.999512,0.076220,-0.228659,0.030488
1549475330698,0.009644,-0.107483,-0.996704,0.076220,-0.228659,0.030488
1549475330706,0.008911,-0.105713,-0.997681,0.076220,-0.213415,0.015244
1549475330714,0.009033,-0.105652,-0.997620,0.091463,-0.228659,0.015244
1549475330721,0.010498,-0.107544,-1.000000,0.106707,-0.213415,0.030488
1549475330736,0.009094,-0.105286,-1.000427,0.060976,-0.213415,0.015244
1549475330744,0.009399,-0.105347,-0.999390,0.076220,-0.198171,0.030488
1549475330751,0.009216,-0.104858,-0.999146,0.091463,-0.213415,0.030488
1549475330766,0.007996,-0.104858,-0.997925,0.076220,-0.228659,0.015244
1549475330774,0.009277,-0.106201,-0.997620,0.076220,-0.213415,0.015244
1549475330781,0.008362,-0.104309,-0.999817,0.091463,-0.228659,0.015244
1549475330796,0.008484,-0.104980,-1.002808,0.091463,-0.213415,0.030488
1549475330804,0.010132,-0.105164,-1.001587,0.060976,-0.198171,0.045732
1549475330818,0.008789,-0.105469,-0.999634,0.076220,-0.198171,0.030488
1549475330826,0.009277,-0.106812,-0.997986,0.091463,-0.228659,0.030488
1549475330834,0.009705,-0.105530,-0.997131,0.076220,-0.243902,0.030488
1549475330841,0.007629,-0.104553,-0.998230,0.076220,-0.228659,0.015244
1549475330856,0.007996,-0.104858,-0.999390,0.091463,-0.213415,0.045732
1549475330864,0.008118,-0.101624,-0.997620,0.091463,-0.228659,0.045732
1549475330871,0.008545,-0.105347,-0.996338,0.091463,-0.228659,0.030488
1549475330886,0.008484,-0.106445,-0.999146,0.091463,-0.213415,0.030488
1549475330894,0.009399,-0.105713,-1.001160,0.106707,-0.228659,0.030488
1549475330901,0.009705,-0.105835,-0.996399,0.091463,-0.213415,0.030488
1549475330916,0.007935,-0.104309,-0.995850,0.076220,-0.228659,0.030488
1549475330924,0.009705,-0.106140,-0.997131,0.076220,-0.213415,0.015244
1549475330931,0.010254,-0.104858,-0.998596,0.076220,-0.198171,0.030488
1549475330946,0.007690,-0.105225,-0.997925,0.091463,-0.198171,0.060976
1549475330960,0.007935,-0.105164,-0.998413,0.076220,-0.228659,0.030488
1549475330967,0.008789,-0.103455,-0.999878,0.091463,-0.228659,0.015244
1549475330976,0.009399,-0.105225,-0.996948,0.091463,-0.213415,0.045732
1549475330984,0.008789,-0.106445,-0.998352,0.091463,-0.213415,0.045732
1549475330991,0.007385,-0.105713,-0.997375,0.091463,-0.228659,0.030488
1549475331006,0.007935,-0.105591,-0.997864,0.060976,-0.228659,0.030488
1549475331014,0.008423,-0.105164,-0.998535,0.076220,-0.213415,0.045732
1549475331021,0.010071,-0.104431,-0.997803,0.076220,-0.228659,0.015244
1549475331036,0.008667,-0.105835,-0.996826,0.076220,-0.213415,0.030488
1549475331044,0.009338,-0.106140,-0.997803,0.076220,-0.243902,0.060976
1549475331051,0.010132,-0.105652,-0.999634,0.076220,-0.228659,0.030488
1549475331066,0.008972,-0.105957,-0.999023,0.076220,-0.228659,0.030488
1549475331074,0.010254,-0.105347,-0.999084,0.091463,-0.228659,0.030488
1549475331081,0.009399,-0.105103,-0.997864,0.076220,-0.213415,0.030488
1549475331102,0.009705,-0.106262,-0.999023,0.060976,-0.228659,0.015244
1549475331110,0.007568,-0.105164,-0.997742,0.076220,-0.213415,0.030488
1549475331117,0.008240,-0.105347,-0.997864,0.106707,-0.213415,0.030488
1549475331126,0.007935,-0.105835,-0.999390,0.076220,-0.228659,0.045732
1549475331133,0.010254,-0.106262,-0.998779,0.091463,-0.213415,0.030488
1549475331141,0.011414,-0.106140,-0.997986,0.091463,-0.213415,0.015244
1549475331156,0.010681,-0.103638,-0.999023,0.076220,-0.213415,0.030488
1549475331164,0.008972,-0.103455,-0.998657,0.091463,-0.198171,0.030488
1549475331171,0.009155,-0.106018,-0.998962,0.091463,-0.198171,0.015244
1549475331186,0.008728,-0.105774,-0.999756,0.106707,-0.228659,0.045732
1549475331194,0.009338,-0.107422,-0.998657,0.076220,-0.228659,0.030488
1549475331201,0.009216,-0.105591,-0.998657,0.106707,-0.243902,0.030488
1549475331216,0.008423,-0.105103,-0.999023,0.091463,-0.228659,0.015244
1549475331224,0.008667,-0.106384,-1.000977,0.091463,-0.213415,0.015244
1549475331231,0.009338,-0.105286,-0.999023,0.091463,-0.228659,0.030488
1549475331246,0.010681,-0.105347,-0.998596,0.106707,-0.213415,0.045732
1549475331254,0.011108,-0.105896,-0.999146,0.060976,-0.228659,0.015244
1549475331261,0.010559,-0.105286,-1.000305,0.060976,-0.213415,0.015244
1549475331276,0.008972,-0.105164,-1.000122,0.091463,-0.213415,0.030488
1549475331283,0.010742,-0.104614,-1.001160,0.091463,-0.198171,0.015244
1549475331291,0.010071,-0.103882,-0.996521,0.106707,-0.228659,0.015244
1549475331306,0.010620,-0.104492,-0.998474,0.091463,-0.243902,0.030488
1549475331314,0.009827,-0.104980,-0.996948,0.076220,-0.228659,0.030488
1549475331321,0.008301,-0.106506,-0.998901,0.091463,-0.228659,0.045732
1549475331336,0.008484,-0.104492,-0.999451,0.106707,-0.228659,0.030488
1549475331344,0.008545,-0.104126,-0.998657,0.076220,-0.213415,0.015244
1549475331351,0.008789,-0.104736,-0.997437,0.091463,-0.243902,0.030488
1549475331366,0.008667,-0.106628,-0.999084,0.076220,-0.243902,0.030488
1549475331380,0.008911,-0.104553,-1.000244,0.091463,-0.213415,0.030488
1549475331388,0.010620,-0.105164,-0.999756,0.076220,-0.228659,0.030488
1549475331396,0.009949,-0.106628,-1.000122,0.091463,-0.213415,0.015244
1549475331404,0.007568,-0.106140,-0.998291,0.091463,-0.213415,0.015244
1549475331411,0.006897,-0.105713,-1.000427,0.045732,-0.228659,0.015244
1549475331426,0.008606,-0.104126,-0.997681,0.106707,-0.213415,0.015244
1549475331434,0.008972,-0.105835,-0.998352,0.091463,-0.228659,0.045732
1549475331441,0.009216,-0.106567,-0.999634,0.076220,-0.243902,0.030488
1549475331456,0.009827,-0.105774,-0.999573,0.076220,-0.228659,0.015244
1549475331464,0.008118,-0.106018,-0.999512,0.076220,-0.198171,0.015244
1549475331471,0.009888,-0.105896,-1.000549,0.106707,-0.198171,0.015244
1549475331493,0.009155,-0.106079,-1.000671,0.106707,-0.198171,0.000000
1549475331500,0.009460,-0.105591,-0.999390,0.076220,-0.228659,0.030488
1549475331508,0.009216,-0.104858,-0.997925,0.076220,-0.228659,0.030488
1549475331516,0.007812,-0.105225,-1.000000,0.076220,-0.213415,0.015244
1549475331524,0.009583,-0.105591,-0.999390,0.060976,-0.198171,0.030488
1549475331531,0.010742,-0.105469,-0.999939,0.076220,-0.243902,0.030488
1549475331546,0.008545,-0.105164,-0.998596,0.091463,-0.213415,0.030488
1549475331553,0.008789,-0.106506,-0.997253,0.076220,-0.213415,0.015244
1549475331561,0.008850,-0.106201,-0.998718,0.091463,-0.213415,0.045732
1549475331576,0.009155,-0.104614,-0.998535,0.060976,-0.213415,0.045732
1549475331584,0.008362,-0.105591,-0.998230,0.076220,-0.213415,0.030488
1549475331591,0.007629,-0.105896,-0.999084,0.091463,-0.213415,0.030488
1549475331606,0.008484,-0.106079,-1.000244,0.045732,-0.213415,0.030488
1549475331614,0.009094,-0.106079,-0.998291,0.076220,-0.228659,0.000000
1549475331621,0.007141,-0.104919,-1.000305,0.091463,-0.228659,0.015244
1549475331636,0.010132,-0.106506,-0.998657,0.076220,-0.213415,0.030488
1549475331644,0.010010,-0.106323,-0.996826,0.091463,-0.213415,0.015244
1549475331651,0.008667,-0.103577,-0.998535,0.091463,-0.213415,0.030488
1549475331666,0.009827,-0.104797,-0.998596,0.076220,-0.198171,0.030488
1549475331674,0.010132,-0.105225,-0.998840,0.106707,-0.228659,0.030488
1549475331681,0.009521,-0.105774,-0.996216,0.091463,-0.228659,0.030488
1549475331696,0.008911,-0.105957,-0.999451,0.076220,-0.198171,0.045732
1549475331704,0.009888,-0.104614,-0.998901,0.091463,-0.228659,0.045732
1549475331711,0.010498,-0.102478,-0.999329,0.106707,-0.228659,0.030488
1549475331726,0.009033,-0.105957,-0.997559,0.076220,-0.228659,0.015244
1549475331734,0.009033,-0.103943,-0.998718,0.076220,-0.228659,0.015244
1549475331741,0.007812,-0.104980,-0.999512,0.106707,-0.213415,0.030488
1549475331756,0.007751,-0.106873,-0.996826,0.060976,-0.228659,0.015244
1549475331764,0.009094,-0.105835,-0.998474,0.060976,-0.213415,0.030488
1549475331771,0.009583,-0.106018,-0.996704,0.076220,-0.198171,0.030488
1549475331786,0.009888,-0.105835,-0.997314,0.076220,-0.228659,0.030488
1549475331794,0.008911,-0.104736,-0.999207,0.091463,-0.213415,0.015244
1549475331808,0.010071,-0.105225,-0.996948,0.060976,-0.228659,0.030488
1549475331816,0.007935,-0.105225,-0.998779,0.060976,-0.182927,0.030488
1549475331824,0.008911,-0.104431,-1.000549,0.076220,-0.213415,0.030488
1549475331831,0.011169,-0.104614,-0.998718,0.091463,-0.213415,0.045732
1549475331846,0.008911,-0.104492,-0.999207,0.076220,-0.213415,0.030488
1549475331854,0.008484,-0.104065,-1.000000,0.091463,-0.228659,0.030488
1549475331861,0.010437,-0.105469,-0.997375,0.091463,-0.198171,0.045732
1549475331876,0.009888,-0.105652,-0.996521,0.076220,-0.213415,0.045732
1549475331883,0.008789,-0.104370,-0.999634,0.076220,-0.213415,0.015244
1549475331891,0.008484,-0.104370,-0.999512,0.076220,-0.228659,0.015244
1549475331913,0.007568,-0.106079,-0.998901,0.076220,-0.213415,0.015244
1549475331920,0.008606,-0.105042,-0.999146,0.091463,-0.213415,0.030488
1549475331927,0.007812,-0.106140,-0.999329,0.076220,-0.228659,0.030488
1549475331936,0.007141,-0.104858,-0.997437,0.106707,-0.228659,0.030488
1549475331944,0.009583,-0.104248,-0.997192,0.076220,-0.213415,0.015244
1549475331951,0.009644,-0.104431,-0.999207,0.076220,-0.198171,0.030488
1549475331966,0.007385,-0.104553,-0.998718,0.076220,-0.228659,0.015244
1549475331974,0.009094,-0.105957,-0.998169,0.076220,-0.213415,0.045732
1549475331981,0.010376,-0.103882,-0.997131,0.091463,-0.198171,0.030488
1549475331996,0.008606,-0.105835,-0.998718,0.091463,-0.198171,0.015244
1549475332004,0.009155,-0.104736,-0.994812,0.060976,-0.213415,0.030488
1549475332011,0.009277,-0.105591,-0.996216,0.060976,-0.213415,0.015244
1549475332026,0.010925,-0.105286,-0.996887,0.106707,-0.213415,0.015244
1549475332034,0.009155,-0.104797,-1.000244,0.091463,-0.213415,0.030488
1549475332041,0.009888,-0.104919,-0.999878,0.076220,-0.228659,0.015244
1549475332056,0.008301,-0.105835,-1.000183,0.076220,-0.228659,0.015244
1549475332064,0.007629,-0.106384,-0.996887,0.091463,-0.213415,0.015244
1549475332071,0.007996,-0.104370,-1.000549,0.076220,-0.198171,0.015244
1549475332086,0.008850,-0.102966,-0.997620,0.091463,-0.198171,0.060976
1549475332094,0.007996,-0.104858,-0.998169,0.121951,-0.228659,0.030488
1549475332101,0.006592,-0.104797,-0.998291,0.091463,-0.213415,0.030488
1549475332116,0.008972,-0.105896,-0.998535,0.076220,-0.182927,0.030488
1549475332124,0.007812,-0.106384,-1.000427,0.076220,-0.198171,0.015244
1549475332131,0.009216,-0.106934,-0.999146,0.076220,-0.228659,0.015244
1549475332146,0.008789,-0.105957,-0.997559,0.091463,-0.243902,0.015244
1549475332154,0.009888,-0.104553,-1.000000,0.091463,-0.243902,0.015244
1549475332161,0.008789,-0.104065,-0.999329,0.106707,-0.228659,0.030488
1549475332176,0.007996,-0.105469,-0.998169,0.076220,-0.213415,0.045732
1549475332184,0.006958,-0.105042,-0.999329,0.076220,-0.213415,0.015244
1549475332191,0.009521,-0.105713,-0.997986,0.106707,-0.228659,0.015244
1549475332206,0.010193,-0.106323,-1.000916,0.091463,-0.228659,0.015244
1549475332220,0.009705,-0.105774,-1.002197,0.076220,-0.213415,0.015244
1549475332228,0.010620,-0.104919,-1.001160,0.076220,-0.213415,0.045732
1549475332236,0.008728,-0.105530,-0.999939,0.091463,-0.228659,0.030488
1549475332244,0.009583,-0.106384,-0.998352,0.091463,-0.213415,0.030488
1549475332251,0.009399,-0.104736,-0.998413,0.076220,-0.213415,0.030488
1549475332266,0.008423,-0.103699,-0.996521,0.060976,-0.198171,0.030488
1549475332274,0.009216,-0.104858,-0.997437,0.076220,-0.213415,0.015244
1549475332281,0.008606,-0.105774,-1.000793,0.076220,-0.213415,0.015244
1549475332296,0.009460,-0.104309,-0.998230,0.091463,-0.182927,0.030488
1549475332304,0.007385,-0.105774,-0.999268,0.091463,-0.213415,0.030488
1549475332311,0.008301,-0.104492,-1.000061,0.091463,-0.213415,0.045732
1549475332326,0.008728,-0.105042,-0.999207,0.091463,-0.213415,0.045732
1549475332334,0.009033,-0.105835,-0.999084,0.091463,-0.213415,0.045732
1549475332341,0.010010,-0.104980,-0.998657,0.091463,-0.213415,0.015244
1549475332356,0.008789,-0.105774,-0.996521,0.091463,-0.213415,0.015244
1549475332364,0.009094,-0.105713,-0.998291,0.076220,-0.228659,0.030488
1549475332371,0.009033,-0.104980,-0.998840,0.091463,-0.243902,0.030488
1549475332386,0.008911,-0.106201,-1.001709,0.091463,-0.213415,0.030488
1549475332394,0.008850,-0.106079,-1.000427,0.076220,-0.228659,0.030488
1549475332401,0.008667,-0.103394,-0.999573,0.091463,-0.228659,0.015244
1549475332417,0.009033,-0.104370,-0.998413,0.076220,-0.198171,0.015244
1549475332425,0.008850,-0.104492,-0.997925,0.045732,-0.228659,0.030488
1549475332432,0.010742,-0.104614,-0.999390,0.076220,-0.213415,0.045732
1549475332446,0.008789,-0.105652,-0.999756,0.106707,-0.228659,0.030488
1549475332454,0.007629,-0.104858,-0.997620,0.091463,-0.213415,0.015244
1549475332461,0.006531,-0.106323,-0.999451,0.076220,-0.213415,0.015244
1549475332476,0.007935,-0.105713,-0.996643,0.091463,-0.228659,0.030488
1549475332484,0.010742,-0.104309,-0.998535,0.106707,-0.213415,0.045732
1549475332491,0.009094,-0.104919,-1.000000,0.076220,-0.213415,0.045732
1549475332506,0.008240,-0.105164,-0.998596,0.060976,-0.228659,0.030488
1549475332514,0.008301,-0.104431,-0.998718,0.076220,-0.228659,0.030488
1549475332521,0.008606,-0.104248,-0.999268,0.060976,-0.213415,0.045732
1549475332543,0.008545,-0.105835,-0.999329,0.091463,-0.213415,0.045732
1549475332550,0.009155,-0.105347,-0.997375,0.076220,-0.198171,0.015244
1549475332558,0.009399,-0.106812,-0.998169,0.076220,-0.213415,0.030488
1549475332566,0.008484,-0.105225,-0.998047,0.091463,-0.228659,0.030488
1549475332574,0.010132,-0.106201,-0.997070,0.076220,-0.213415,0.015244
1549475332581,0.009338,-0.105103,-0.998413,0.076220,-0.213415,0.015244
1549475332596,0.009521,-0.106567,-0.998230,0.060976,-0.213415,0.030488
1549475332604,0.008057,-0.105225,-0.999451,0.060976,-0.213415,0.015244
1549475332611,0.009033,-0.104736,-1.000061,0.091463,-0.228659,0.015244
1549475332626,0.008606,-0.106140,-0.999695,0.076220,-0.213415,0.015244
1549475332634,0.008484,-0.106262,-0.999268,0.076220,-0.228659,0.030488
1549475332641,0.009399,-0.104614,-0.997742,0.091463,-0.228659,0.015244
1549475332656,0.009521,-0.104187,-0.997559,0.106707,-0.213415,0.030488
1549475332664,0.008118,-0.103027,-1.000000,0.091463,-0.213415,0.030488
1549475332671,0.008423,-0.104187,-0.999451,0.106707,-0.228659,0.015244
1549475332686,0.009888,-0.105591,-0.998474,0.060976,-0.213415,0.015244
1549475332694,0.009705,-0.104553,-0.999451,0.060976,-0.198171,0.030488
1549475332701,0.007385,-0.104248,-0.998413,0.076220,-0.198171,0.030488
1549475332716,0.009277,-0.104919,-0.998779,0.060976,-0.228659,0.030488
1549475332724,0.009033,-0.103882,-0.998169,0.091463,-0.213415,0.030488
1549475332731,0.008972,-0.106384,-0.999451,0.076220,-0.228659,0.030488
1549475332746,0.009155,-0.106812,-0.998596,0.091463,-0.198171,0.030488
1549475332754,0.008423,-0.104431,-0.998779,0.091463,-0.213415,0.015244
1549475332761,0.008118,-0.104370,-0.998352,0.060976,-0.228659,0.015244
1549475332776,0.010376,-0.105591,-1.000488,0.060976,-0.213415,0.015244
1549475332784,0.009827,-0.106262,-0.997925,0.076220,-0.213415,0.015244
1549475332791,0.010132,-0.104980,-1.001709,0.076220,-0.198171,0.030488
1549475332806,0.009460,-0.106201,-0.996826,0.091463,-0.213415,0.045732
1549475332814,0.009277,-0.106018,-0.996643,0.091463,-0.228659,0.015244
1549475332821,0.010559,-0.104614,-1.000916,0.091463,-0.213415,0.045732
1549475332842,0.008606,-0.105713,-0.998535,0.106707,-0.213415,0.045732
1549475332850,0.009094,-0.104309,-0.998718,0.060976,-0.213415,0.030488
1549475332857,0.008606,-0.103455,-0.998169,0.106707,-0.213415,0.000000
1549475332866,0.009216,-0.106262,-0.999695,0.121951,-0.213415,0.015244
1549475332874,0.009399,-0.105713,-0.999390,0.091463,-0.213415,0.030488
1549475332881,0.008301,-0.105469,-0.999023,0.106707,-0.198171,0.015244
1549475332896,0.009033,-0.104675,-1.000610,0.106707,-0.213415,0.015244
1549475332904,0.008484,-0.106018,-1.000366,0.091463,-0.198171,0.030488
1549475332911,0.008789,-0.105042,-0.999695,0.076220,-0.213415,0.015244
1549475332926,0.009399,-0.105652,-0.998779,0.060976,-0.228659,0.015244
1549475332934,0.007629,-0.104736,-0.998657,0.091463,-0.213415,0.015244
1549475332941,0.008362,-0.104187,-0.999329,0.091463,-0.213415,0.015244
1549475332956,0.010742,-0.104675,-0.999756,0.076220,-0.213415,0.030488
1549475332964,0.009094,-0.104858,-1.000610,0.076220,-0.213415,0.015244
1549475332971,0.009888,-0.105469,-1.000305,0.076220,-0.198171,0.030488
1549475332986,0.010071,-0.105408,-0.998779,0.091463,-0.228659,0.030488
1549475332994,0.007996,-0.105469,-0.999329,0.091463,-0.243902,0.015244
1549475333001,0.007141,-0.105774,-0.997192,0.091463,-0.213415,0.030488
1549475333016,0.009521,-0.105591,-0.999023,0.106707,-0.213415,0.015244
1549475333024,0.008789,-0.106140,-1.000122,0.076220,-0.228659,0.030488
1549475333038,0.009460,-0.104736,-0.996826,0.076220,-0.228659,0.030488
1549475333045,0.009460,-0.105103,-0.999512,0.091463,-0.228659,0.030488
1549475333060,0.009094,-0.107727,-0.998596,0.076220,-0.198171,0.030488
1549475333068,0.008118,-0.105835,-0.998352,0.091463,-0.198171,0.030488
1549475333075,0.009277,-0.104858,-0.999512,0.076220,-0.213415,0.045732
1549475333084,0.009155,-0.104187,-0.997070,0.060976,-0.198171,0.030488
1549475333091,0.009705,-0.105408,-0.998108,0.106707,-0.213415,0.030488
1549475333106,0.009338,-0.105347,-0.997864,0.091463,-0.243902,0.015244
1549475333114,0.009705,-0.103699,-0.997742,0.076220,-0.213415,0.015244
1549475333121,0.008606,-0.105042,-0.997192,0.060976,-0.198171,0.015244
1549475333136,0.008179,-0.103516,-0.998840,0.060976,-0.198171,0.030488
1549475333144,0.007629,-0.105469,-1.000610,0.091463,-0.198171,0.030488
1549475333151,0.009583,-0.105835,-0.999390,0.076220,-0.213415,0.015244
1549475333166,0.007019,-0.105591,-0.997559,0.091463,-0.213415,0.045732
1549475333174,0.009521,-0.104797,-0.996155,0.091463,-0.213415,0.030488
1549475333181,0.008118,-0.104309,-0.998230,0.091463,-0.228659,0.030488
1549475333196,0.008789,-0.103760,-0.998718,0.076220,-0.213415,0.030488
1549475333204,0.009521,-0.105286,-0.999390,0.106707,-0.213415,0.045732
1549475333211,0.009521,-0.105469,-1.000732,0.106707,-0.243902,0.045732
1549475333226,0.010742,-0.103943,-0.997375,0.076220,-0.228659,0.030488
1549475333234,0.009583,-0.104370,-0.997559,0.091463,-0.228659,0.030488
1549475333241,0.010071,-0.106079,-0.999390,0.091463,-0.213415,0.030488
1549475333256,0.010498,-0.105896,-0.998657,0.060976,-0.213415,0.015244
1549475333270,0.010010,-0.105103,-0.997314,0.076220,-0.198171,0.015244
1549475333278,0.008972,-0.104675,-0.998596,0.091463,-0.213415,0.030488
1549475333286,0.009766,-0.104736,-0.998352,0.106707,-0.213415,0.045732
1549475333294,0.009094,-0.105835,-0.998169,0.091463,-0.213415,0.015244
1549475333301,0.009277,-0.105896,-0.999146,0.076220,-0.213415,0.030488
1549475333323,0.008240,-0.104919,-0.999878,0.060976,-0.213415,0.015244
1549475333331,0.007812,-0.105225,-0.998718,0.045732,-0.213415,0.000000
1549475333338,0.010071,-0.105957,-0.998779,0.060976,-0.228659,0.015244
1549475333347,0.008423,-0.104309,-0.998779,0.091463,-0.213415,0.045732
1549475333354,0.008972,-0.104980,-0.998169,0.076220,-0.213415,0.045732
1549475333368,0.010193,-0.104492,-0.999084,0.091463,-0.198171,0.045732
1549475333377,0.008789,-0.104065,-0.998718,0.076220,-0.228659,0.030488
1549475333385,0.007874,-0.104431,-0.997498,0.091463,-0.228659,0.030488
1549475333391,0.009705,-0.104858,-0.996399,0.091463,-0.213415,0.030488
1549475333406,0.010437,-0.104919,-0.996887,0.076220,-0.228659,0.030488
1549475333414,0.008118,-0.106201,-0.999634,0.091463,-0.228659,0.030488
1549475333422,0.009949,-0.105835,-0.999390,0.106707,-0.213415,0.030488
1549475333437,0.008667,-0.104492,-1.000916,0.091463,-0.228659,0.030488
1549475333444,0.010071,-0.103455,-1.001526,0.060976,-0.213415,0.030488
1549475333452,0.011108,-0.105957,-1.000244,0.106707,-0.228659,0.015244
1549475333473,0.008057,-0.106445,-0.999146,0.076220,-0.213415,0.030488
1549475333481,0.008301,-0.106079,-0.997070,0.076220,-0.213415,0.045732
1549475333488,0.009583,-0.104004,-0.996948,0.076220,-0.213415,0.030488
1549475333496,0.010498,-0.105591,-0.996338,0.076220,-0.198171,0.030488
1549475333504,0.009521,-0.105835,-0.996948,0.076220,-0.198171,0.030488
1549475333511,0.008911,-0.105347,-0.998840,0.091463,-0.228659,0.030488
1549475333526,0.008850,-0.105896,-1.001587,0.076220,-0.213415,0.030488
1549475333534,0.009888,-0.106262,-0.998596,0.076220,-0.198171,0.030488
1549475333542,0.010376,-0.106995,-0.999878,0.076220,-0.228659,0.015244
1549475333556,0.009644,-0.105042,-0.997437,0.106707,-0.243902,0.015244
1549475333564,0.008789,-0.105957,-0.998840,0.091463,-0.228659,0.015244
1549475333571,0.009216,-0.104248,-1.000916,0.091463,-0.198171,0.030488
1549475333586,0.008911,-0.105774,-0.998901,0.076220,-0.228659,0.045732
1549475333594,0.010376,-0.105835,-1.000305,0.091463,-0.213415,0.045732
1549475333602,0.009460,-0.104614,-0.998718,0.076220,-0.228659,0.030488
1549475333617,0.009399,-0.105103,-1.000183,0.091463,-0.213415,0.015244
1549475333624,0.009766,-0.106323,-1.001343,0.076220,-0.213415,0.015244
1549475333631,0.008789,-0.105042,-0.999695,0.076220,-0.228659,0.030488
1549475333647,0.008362,-0.104431,-0.998718,0.091463,-0.228659,0.030488
1549475333654,0.010193,-0.105286,-0.999268,0.076220,-0.198171,0.015244
1549475333662,0.011353,-0.105286,-0.999451,0.076220,-0.228659,0.030488
1549475333677,0.008972,-0.103577,-0.997925,0.076220,-0.228659,0.030488
1549475333684,0.009216,-0.104736,-0.997314,0.091463,-0.228659,0.030488
1549475333692,0.009521,-0.105774,-0.997742,0.091463,-0.213415,0.015244
1549475333707,0.009216,-0.106079,-0.999023,0.091463,-0.213415,0.030488
1549475333714,0.010437,-0.105164,-0.998230,0.091463,-0.228659,0.045732
1549475333722,0.008850,-0.106262,-1.000671,0.076220,-0.228659,0.060976
1549475333737,0.008545,-0.104858,-0.999939,0.076220,-0.259146,0.030488
1549475333751,0.007690,-0.103638,-0.998657,0.106707,-0.243902,0.015244
1549475333759,0.009766,-0.104126,-0.995544,0.091463,-0.228659,0.015244
1549475333767,0.007812,-0.104492,-0.997864,0.091463,-0.213415,0.015244
1549475333774,0.009033,-0.105835,-0.997925,0.091463,-0.228659,0.030488
1549475333782,0.008911,-0.104553,-1.001709,0.076220,-0.243902,0.030488
1549475333797,0.007568,-0.105225,-0.999634,0.091463,-0.213415,0.015244
1549475333804,0.009216,-0.106506,-1.000000,0.091463,-0.213415,0.015244
1549475333811,0.008179,-0.105164,-0.997864,0.060976,-0.213415,0.030488
1549475333826,0.009094,-0.105164,-0.998840,0.076220,-0.228659,0.015244
1549475333834,0.010010,-0.105713,-0.999146,0.091463,-0.213415,0.030488
1549475333842,0.007690,-0.103638,-0.996277,0.060976,-0.198171,0.030488
1549475333856,0.009033,-0.104309,-1.001099,0.045732,-0.228659,0.030488
1549475333864,0.008972,-0.105042,-1.000854,0.076220,-0.228659,0.045732
1549475333878,0.009094,-0.104980,-1.000366,0.091463,-0.228659,0.015244
1549475333886,0.008972,-0.104248,-0.997375,0.076220,-0.213415,0.030488
1549475333894,0.008911,-0.103821,-0.997803,0.076220,-0.213415,0.030488
1549475333909,0.008972,-0.104919,-0.999390,0.091463,-0.213415,0.030488
1549475333916,0.009277,-0.105896,-0.997253,0.091463,-0.228659,0.045732
1549475333924,0.011169,-0.103577,-0.999451,0.060976,-0.228659,0.045732
1549475333932,0.009827,-0.103394,-1.001099,0.091463,-0.228659,0.045732
1549475333946,0.007507,-0.105591,-1.002319,0.076220,-0.228659,0.015244
1549475333954,0.010193,-0.104187,-0.999512,0.060976,-0.228659,0.030488
1549475333962,0.008911,-0.105408,-0.997009,0.091463,-0.198171,0.045732
1549475333976,0.009033,-0.106689,-0.999023,0.091463,-0.213415,0.045732
1549475333984,0.009705,-0.104614,-1.001587,0.091463,-0.213415,0.015244
1549475333992,0.008301,-0.105469,-1.000305,0.076220,-0.243902,0.015244
1549475334006,0.009155,-0.107361,-0.998657,0.076220,-0.228659,0.015244
1549475334014,0.009033,-0.105042,-1.000000,0.091463,-0.213415,0.030488
1549475334022,0.009399,-0.105347,-1.000183,0.106707,-0.228659,0.030488
1549475334036,0.009033,-0.105591,-0.999573,0.091463,-0.198171,0.045732
1549475334044,0.009827,-0.105713,-1.000183,0.076220,-0.228659,0.030488
1549475334052,0.010864,-0.104431,-0.999939,0.106707,-0.228659,0.030488
1549475334066,0.008789,-0.105530,-0.997742,0.091463,-0.213415,0.030488
1549475334074,0.009155,-0.105530,-0.999512,0.076220,-0.213415,0.030488
1549475334082,0.007935,-0.104675,-1.000671,0.076220,-0.213415,0.030488
1549475334096,0.009338,-0.106445,-0.999817,0.091463,-0.228659,0.030488
1549475334104,0.008545,-0.104797,-0.999084,0.091463,-0.228659,0.015244
1549475334111,0.009705,-0.104248,-1.001404,0.076220,-0.228659,0.015244
1549475334126,0.008484,-0.104553,-0.998474,0.076220,-0.243902,0.015244
1549475334134,0.009033,-0.106079,-0.998413,0.091463,-0.213415,0.030488
1549475334142,0.010742,-0.106201,-1.000916,0.076220,-0.213415,0.015244
1549475334156,0.008484,-0.104797,-0.997742,0.076220,-0.213415,-0.015244
1549475334164,0.009460,-0.105042,-0.999939,0.076220,-0.198171,0.000000
1549475334172,0.008789,-0.105347,-1.000305,0.076220,-0.198171,0.015244
1549475334193,0.008972,-0.104736,-0.998413,0.060976,-0.213415,0.045732
1549475334201,0.009766,-0.103699,-0.998962,0.060976,-0.213415,0.030488
1549475334208,0.008789,-0.105103,-1.000732,0.076220,-0.213415,0.030488
1549475334216,0.009766,-0.104919,-0.998535,0.060976,-0.213415,0.030488
1549475334224,0.008911,-0.103638,-0.996948,0.091463,-0.198171,0.030488
1549475334231,0.008667,-0.105957,-0.998108,0.091463,-0.228659,0.015244
1549475334246,0.008362,-0.105347,-0.998657,0.076220,-0.213415,0.015244
1549475334254,0.009216,-0.103760,-1.000183,0.106707,-0.228659,0.030488
1549475334269,0.009094,-0.104675,-1.000305,0.076220,-0.213415,0.030488
1549475334277,0.010254,-0.107422,-0.999390,0.091463,-0.182927,0.045732
1549475334284,0.008362,-0.104736,-0.996277,0.076220,-0.198171,0.030488
1549475334291,0.007690,-0.103882,-0.999756,0.091463,-0.213415,0.045732
1549475334299,0.010254,-0.105957,-0.998596,0.076220,-0.213415,0.030488
1549475334314,0.008057,-0.104431,-0.999512,0.060976,-0.213415,0.030488
1549475334322,0.007568,-0.105713,-0.999451,0.076220,-0.228659,0.030488
1549475334329,0.009033,-0.105286,-0.997498,0.106707,-0.243902,0.030488
1549475334344,0.007812,-0.105896,-0.998718,0.091463,-0.228659,0.015244
1549475334352,0.010864,-0.105164,-0.998840,0.076220,-0.213415,0.030488
1549475334359,0.010254,-0.103638,-1.000977,0.091463,-0.198171,0.030488
1549475334374,0.009827,-0.106812,-0.997742,0.076220,-0.213415,0.045732
1549475334385,0.010681,-0.105286,-0.998962,0.091463,-0.198171,0.045732
1549475334389,0.009583,-0.105103,-1.000000,0.076220,-0.213415,0.045732
1549475334404,0.009399,-0.106750,-1.000000,0.091463,-0.243902,0.030488
1549475334411,0.010315,-0.105347,-0.995850,0.091463,-0.213415,0.015244
1549475334419,0.009033,-0.104797,-0.998718,0.076220,-0.198171,0.030488
1549475334434,0.008179,-0.105530,-0.999084,0.076220,-0.228659,0.015244
1549475334441,0.008911,-0.105957,-0.998352,0.091463,-0.228659,0.030488
1549475334449,0.008057,-0.106079,-0.999695,0.091463,-0.213415,0.030488
1549475334464,0.008545,-0.104431,-1.000549,0.106707,-0.213415,0.045732
1549475334471,0.011353,-0.105530,-1.000122,0.091463,-0.228659,0.015244
1549475334480,0.011108,-0.106384,-0.998657,0.060976,-0.213415,0.015244
1549475334494,0.009094,-0.104309,-0.998291,0.076220,-0.213415,0.015244
1549475334508,0.007080,-0.103638,-0.997498,0.076220,-0.213415,0.030488
1549475334515,0.009094,-0.104980,-0.997131,0.076220,-0.228659,0.030488
1549475334524,0.008301,-0.105408,-0.998779,0.076220,-0.228659,0.030488
1549475334531,0.008728,-0.105286,-0.999084,0.091463,-0.198171,0.030488
1549475334539,0.008606,-0.106506,-0.997620,0.076220,-0.213415,0.030488
1549475334554,0.009216,-0.105103,-0.997498,0.091463,-0.213415,0.030488
1549475334562,0.010620,-0.104126,-0.999023,0.106707,-0.213415,0.015244
1549475334569,0.007996,-0.106506,-0.997253,0.060976,-0.213415,0.015244
1549475334584,0.008545,-0.105042,-0.998047,0.060976,-0.213415,0.000000
1549475334592,0.008667,-0.105652,-0.997131,0.060976,-0.228659,0.000000
1549475334599,0.007996,-0.106567,-0.999939,0.045732,-0.228659,0.030488
1549475334614,0.009338,-0.103516,-0.998657,0.076220,-0.213415,0.015244
1549475334622,0.009216,-0.104370,-0.996704,0.091463,-0.182927,0.015244
1549475334629,0.007507,-0.104065,-0.998535,0.091463,-0.213415,0.015244
1549475334644,0.008545,-0.104370,-0.997681,0.076220,-0.213415,0.030488
1549475334652,0.010559,-0.104248,-0.997314,0.091463,-0.213415,0.030488
1549475334659,0.009094,-0.104248,-0.998230,0.076220,-0.182927,0.000000
1549475334674,0.008362,-0.106140,-0.997681,0.076220,-0.213415,0.015244
1549475334682,0.009155,-0.105896,-0.997131,0.091463,-0.228659,0.030488
1549475334689,0.007996,-0.106323,-0.998962,0.091463,-0.228659,0.030488
1549475334705,0.008789,-0.106140,-0.999817,0.076220,-0.213415,0.030488
1549475334719,0.007507,-0.106201,-0.998474,0.091463,-0.213415,0.030488
1549475334726,0.008606,-0.104736,-0.998657,0.091463,-0.213415,0.015244
1549475334734,0.009644,-0.103760,-1.002319,0.076220,-0.213415,0.015244
1549475334742,0.006165,-0.103638,-0.999817,0.091463,-0.228659,0.000000
1549475334749,0.008667,-0.106018,-0.998962,0.106707,-0.228659,0.030488
1549475334764,0.010254,-0.105652,-0.999695,0.076220,-0.213415,0.015244
1549475334772,0.009705,-0.105103,-0.998657,0.076220,-0.228659,0.015244
1549475334779,0.006409,-0.104675,-1.000183,0.076220,-0.213415,0.030488
1549475334794,0.009521,-0.104248,-0.999390,0.060976,-0.228659,0.045732
1549475334802,0.010132,-0.105957,-1.000305,0.076220,-0.228659,0.030488
1549475334816,0.008362,-0.106689,-1.001648,0.091463,-0.228659,0.015244
1549475334824,0.008606,-0.104980,-1.000000,0.091463,-0.228659,0.000000
1549475334832,0.009521,-0.105103,-0.999084,0.091463,-0.228659,0.030488
1549475334839,0.011475,-0.105896,-1.001526,0.076220,-0.228659,0.030488
1549475334854,0.009277,-0.104675,-0.999634,0.076220,-0.213415,0.015244
1549475334862,0.009705,-0.105713,-1.001282,0.091463,-0.213415,0.045732
1549475334869,0.008911,-0.105896,-1.000183,0.106707,-0.228659,0.030488
1549475334884,0.008789,-0.106750,-0.998230,0.091463,-0.243902,0.015244
1549475334891,0.008667,-0.103394,-0.999084,0.060976,-0.228659,0.030488
1549475334899,0.009277,-0.105774,-0.998840,0.045732,-0.198171,0.030488
1549475334921,0.008423,-0.103760,-0.997559,0.076220,-0.182927,0.030488
1549475334928,0.009705,-0.106445,-1.000610,0.076220,-0.198171,0.015244
1549475334936,0.009766,-0.106628,-1.000549,0.076220,-0.213415,0.015244
1549475334944,0.010193,-0.106140,-0.999451,0.076220,-0.213415,0.045732
1549475334951,0.008667,-0.104980,-0.998840,0.121951,-0.228659,0.045732
1549475334959,0.009949,-0.104492,-0.998169,0.106707,-0.228659,0.030488
1549475334974,0.008057,-0.105225,-0.999878,0.106707,-0.228659,0.015244
1549475334982,0.010071,-0.103638,-0.999756,0.091463,-0.213415,0.030488
1549475334989,0.010315,-0.104797,-0.998657,0.076220,-0.243902,0.045732
1549475335004,0.009827,-0.105591,-0.998291,0.076220,-0.213415,0.030488
1549475335011,0.009766,-0.105469,-0.998779,0.076220,-0.213415,0.030488
1549475335019,0.009827,-0.105774,-1.000183,0.091463,-0.213415,0.015244
1549475335034,0.007690,-0.105469,-1.000977,0.060976,-0.213415,0.030488
1549475335042,0.007385,-0.106079,-0.998657,0.076220,-0.213415,0.030488
1549475335049,0.008240,-0.105042,-0.997009,0.091463,-0.243902,0.015244
1549475335064,0.009155,-0.105957,-0.999756,0.091463,-0.213415,0.030488
1549475335072,0.008545,-0.105042,-0.998413,0.091463,-0.198171,0.030488
1549475335079,0.008606,-0.105286,-0.995605,0.076220,-0.228659,0.015244
1549475335094,0.009766,-0.105469,-0.999207,0.076220,-0.228659,0.015244
1549475335101,0.009888,-0.106812,-1.000671,0.076220,-0.213415,0.015244
1549475335109,0.008850,-0.104736,-0.997986,0.060976,-0.213415,0.045732
1549475335124,0.010620,-0.105042,-0.999756,0.091463,-0.213415,0.030488
1549475335132,0.007080,-0.106995,-0.998657,0.106707,-0.228659,0.030488
1549475335139,0.007935,-0.105469,-0.997681,0.091463,-0.243902,0.045732
1549475335154,0.008911,-0.104187,-0.999084,0.076220,-0.243902,0.030488
1549475335162,0.007629,-0.104919,-0.998352,0.091463,-0.228659,0.030488
1549475335169,0.008179,-0.105103,-0.998779,0.091463,-0.213415,0.015244
1549475335184,0.010681,-0.106201,-1.000183,0.076220,-0.198171,0.015244
1549475335192,0.009827,-0.104736,-0.996277,0.076220,-0.228659,0.030488
1549475335199,0.010132,-0.104492,-0.994263,0.091463,-0.213415,0.015244
1549475335214,0.008667,-0.105957,-1.001465,0.091463,-0.198171,0.030488
1549475335229,0.008667,-0.106812,-1.000305,0.076220,-0.228659,0.015244
1549475335236,0.008423,-0.105957,-1.000061,0.076220,-0.228659,0.030488
1549475335244,0.010071,-0.105469,-1.000366,0.076220,-0.228659,0.030488
1549475335252,0.010315,-0.104797,-0.999756,0.091463,-0.213415,0.045732
1549475335259,0.008301,-0.104858,-0.996643,0.106707,-0.198171,0.030488
1549475335274,0.008728,-0.105103,-0.997314,0.076220,-0.228659,0.030488
1549475335282,0.008484,-0.105530,-1.001709,0.076220,-0.228659,0.030488
1549475335289,0.007202,-0.105103,-1.001892,0.091463,-0.228659,0.030488
1549475335304,0.008301,-0.104980,-1.001892,0.106707,-0.198171,0.045732
1549475335312,0.009521,-0.104553,-0.998047,0.091463,-0.198171,0.030488
1549475335319,0.009399,-0.104370,-1.000244,0.091463,-0.228659,0.030488
1549475335334,0.007507,-0.105286,-0.998352,0.106707,-0.213415,0.030488
1549475335342,0.009094,-0.104736,-0.999146,0.091463,-0.213415,0.030488
1549475335349,0.008484,-0.105591,-1.000000,0.091463,-0.228659,0.030488
1549475335364,0.008667,-0.108154,-1.002319,0.076220,-0.198171,0.045732
1549475335372,0.008118,-0.105530,-0.999023,0.076220,-0.213415,0.030488
1549475335380,0.009399,-0.105408,-0.999146,0.076220,-0.213415,0.030488
1549475335395,0.010437,-0.106262,-0.999146,0.091463,-0.243902,0.030488
1549475335402,0.008118,-0.106079,-0.996704,0.076220,-0.228659,0.030488
1549475335410,0.008911,-0.104309,-0.996704,0.076220,-0.213415,0.030488
1549475335425,0.009644,-0.104736,-0.997253,0.091463,-0.198171,0.030488
1549475335432,0.007141,-0.106140,-0.999390,0.076220,-0.213415,0.045732
1549475335439,0.008362,-0.107056,-0.998657,0.091463,-0.228659,0.030488
1549475335454,0.008850,-0.104492,-1.000305,0.091463,-0.213415,0.030488
1549475335462,0.008362,-0.104248,-1.002380,0.076220,-0.198171,0.030488
1549475335469,0.009644,-0.104309,-0.997192,0.060976,-0.213415,0.030488
1549475335484,0.009277,-0.105164,-0.998474,0.076220,-0.213415,0.045732
1549475335499,0.008850,-0.104309,-0.998901,0.106707,-0.213415,0.030488
1549475335507,0.007751,-0.105957,-0.998901,0.091463,-0.213415,0.015244
1549475335514,0.009460,-0.106506,-0.999084,0.091463,-0.213415,0.030488
1549475335522,0.012451,-0.104980,-0.998413,0.076220,-0.213415,0.045732
1549475335536,0.009949,-0.105225,-1.000732,0.060976,-0.213415,0.030488
1549475335544,0.009460,-0.104614,-1.000427,0.076220,-0.228659,0.030488
1549475335552,0.010193,-0.104004,-0.998535,0.091463,-0.213415,0.030488
1549475335559,0.008972,-0.105652,-0.997986,0.076220,-0.213415,0.030488
1549475335574,0.008667,-0.104431,-0.999023,0.076220,-0.213415,0.000000
1549475335582,0.009644,-0.105347,-1.001343,0.106707,-0.228659,0.030488
1549475335589,0.009644,-0.104126,-0.998169,0.091463,-0.243902,0.015244
1549475335604,0.008789,-0.105225,-0.998718,0.091463,-0.213415,0.015244
1549475335612,0.009888,-0.105164,-0.997253,0.076220,-0.213415,0.045732
1549475335619,0.008972,-0.104858,-0.996948,0.060976,-0.228659,0.015244
1549475335634,0.009277,-0.104187,-0.995483,0.091463,-0.228659,0.015244
1549475335649,0.009277,-0.104004,-0.996521,0.091463,-0.213415,0.000000
1549475335656,0.008301,-0.105286,-0.998657,0.091463,-0.228659,0.030488
1549475335664,0.007385,-0.103455,-1.000244,0.091463,-0.228659,0.030488
1549475335672,0.010132,-0.105286,-0.999756,0.091463,-0.213415,0.030488
1549475335680,0.008972,-0.102783,-0.999695,0.076220,-0.213415,0.030488
1549475335694,0.008423,-0.104614,-0.998779,0.060976,-0.228659,0.030488
1549475335702,0.009155,-0.105042,-0.997498,0.060976,-0.213415,0.015244
1549475335709,0.009338,-0.104858,-0.996643,0.060976,-0.243902,0.000000
1549475335724,0.008301,-0.105164,-0.998413,0.076220,-0.213415,0.015244
1549475335732,0.008667,-0.106567,-0.996033,0.076220,-0.198171,0.030488
1549475335739,0.010986,-0.105469,-0.997925,0.091463,-0.228659,0.030488
1549475335754,0.007629,-0.104004,-1.000305,0.106707,-0.228659,0.000000
1549475335762,0.009155,-0.105042,-0.998962,0.076220,-0.228659,0.015244
1549475335776,0.008667,-0.105164,-0.998230,0.060976,-0.198171,0.030488
1549475335784,0.008484,-0.106079,-1.000549,0.076220,-0.213415,0.030488
1549475335792,0.009827,-0.103821,-0.998596,0.091463,-0.213415,0.045732
1549475335799,0.008789,-0.105286,-1.000000,0.091463,-0.228659,0.015244
1549475335814,0.007629,-0.104248,-1.000000,0.106707,-0.213415,0.015244
1549475335822,0.009766,-0.106445,-0.998901,0.091463,-0.228659,0.015244
1549475335829,0.007812,-0.105408,-0.996399,0.076220,-0.228659,0.015244
1549475335851,0.008118,-0.105225,-0.997925,0.076220,-0.213415,0.045732
1549475335859,0.007996,-0.105042,-1.001160,0.045732,-0.213415,0.030488
1549475335866,0.008057,-0.104187,-0.997498,0.060976,-0.213415,0.045732
1549475335874,0.006897,-0.104431,-0.995422,0.091463,-0.213415,0.030488
1549475335882,0.008301,-0.106689,-1.002625,0.106707,-0.243902,0.015244
1549475335889,0.010071,-0.106689,-0.999146,0.106707,-0.228659,0.030488
1549475335904,0.010376,-0.105652,-0.995911,0.091463,-0.213415,0.000000
1549475335912,0.009277,-0.104492,-0.998779,0.106707,-0.228659,0.030488
1549475335919,0.008362,-0.104492,-1.000549,0.091463,-0.243902,0.030488
1549475335934,0.008484,-0.105652,-0.997070,0.060976,-0.213415,0.015244
1549475335942,0.009644,-0.104126,-0.999268,0.076220,-0.228659,0.030488
1549475335956,0.008728,-0.104370,-0.998474,0.091463,-0.228659,0.045732
1549475335964,0.008545,-0.105591,-0.998169,0.076220,-0.198171,0.015244
1549475335972,0.010864,-0.105225,-1.001099,0.076220,-0.213415,0.015244
1549475335979,0.009460,-0.105896,-1.000854,0.076220,-0.213415,0.015244
1549475335994,0.009766,-0.103455,-0.998840,0.060976,-0.213415,0.015244
1549475336008,0.007385,-0.105347,-1.000122,0.076220,-0.228659,0.030488
1549475336016,0.009766,-0.105103,-0.999756,0.060976,-0.228659,0.030488
1549475336024,0.011108,-0.104004,-0.995789,0.060976,-0.243902,0.000000
1549475336032,0.008545,-0.104187,-0.999878,0.076220,-0.213415,0.030488
1549475336039,0.009521,-0.103943,-1.000366,0.106707,-0.228659,0.030488
1549475336061,0.008301,-0.104187,-0.999939,0.106707,-0.228659,0.030488
1549475336069,0.010437,-0.105286,-0.999084,0.076220,-0.213415,0.030488
1549475336076,0.009705,-0.106384,-0.999329,0.076220,-0.198171,0.030488
1549475336084,0.010742,-0.105957,-0.998169,0.076220,-0.213415,0.015244
1549475336092,0.012268,-0.105591,-0.999695,0.076220,-0.213415,0.015244
1549475336099,0.007385,-0.103516,-0.998718,0.076220,-0.228659,0.030488
1549475336114,0.008484,-0.103882,-0.998657,0.076220,-0.213415,0.030488
1549475336129,0.008911,-0.104614,-0.999084,0.091463,-0.198171,0.015244
1549475336136,0.011536,-0.105042,-1.001709,0.091463,-0.228659,0.045732
1549475336144,0.008972,-0.105286,-0.999268,0.076220,-0.213415,0.045732
1549475336152,0.009705,-0.106079,-1.000000,0.076220,-0.228659,0.045732
1549475336166,0.009216,-0.105225,-1.000793,0.091463,-0.213415,0.045732
1549475336174,0.008240,-0.103943,-0.998779,0.091463,-0.213415,0.030488
1549475336183,0.007568,-0.105530,-0.996704,0.076220,-0.213415,0.015244
1549475336189,0.009338,-0.105713,-0.996338,0.091463,-0.228659,0.000000
1549475336204,0.009277,-0.103394,-1.002380,0.076220,-0.213415,0.015244
1549475336212,0.009033,-0.103821,-0.999573,0.060976,-0.228659,0.030488
1549475336219,0.010742,-0.104736,-0.997498,0.076220,-0.213415,0.045732
1549475336234,0.011414,-0.106323,-1.001404,0.091463,-0.198171,0.030488
1549475336249,0.009216,-0.105835,-0.999146,0.091463,-0.198171,0.030488
1549475336256,0.010437,-0.106812,-0.998047,0.091463,-0.228659,0.030488
1549475336271,0.009644,-0.106812,-0.998474,0.060976,-0.228659,0.045732
1549475336286,0.007874,-0.106384,-0.999939,0.060976,-0.243902,0.030488
1549475336294,0.008728,-0.105774,-0.999878,0.076220,-0.243902,0.015244
1549475336301,0.008972,-0.105530,-0.999939,0.091463,-0.213415,0.015244
1549475336309,0.009094,-0.106812,-1.001831,0.091463,-0.213415,0.030488
1549475336323,0.007507,-0.105896,-0.999451,0.076220,-0.213415,0.015244
1549475336331,0.009216,-0.104126,-0.999634,0.060976,-0.228659,0.030488
1549475336339,0.007629,-0.105469,-1.002319,0.091463,-0.213415,0.030488
1549475336346,0.009399,-0.106323,-0.999939,0.091463,-0.213415,0.015244
1549475336354,0.010620,-0.105286,-0.998840,0.106707,-0.213415,0.015244
1549475336369,0.009277,-0.105530,-0.999268,0.076220,-0.228659,0.045732
1549475336377,0.009094,-0.106201,-1.000488,0.091463,-0.228659,0.030488
1549475336384,0.009766,-0.104675,-0.996765,0.091463,-0.198171,0.030488
1549475336392,0.008911,-0.105103,-0.998901,0.076220,-0.213415,0.060976
1549475336399,0.009094,-0.105835,-1.000305,0.076220,-0.213415,0.030488
1549475336414,0.009460,-0.105469,-0.999695,0.091463,-0.228659,0.015244
1549475336422,0.010071,-0.105896,-0.998352,0.091463,-0.213415,0.015244
1549475336429,0.009583,-0.105103,-1.000183,0.091463,-0.213415,0.000000
1549475336444,0.009033,-0.104187,-0.999573,0.091463,-0.228659,0.015244
1549475336453,0.010437,-0.105713,-0.998352,0.076220,-0.213415,0.060976
1549475336459,0.008850,-0.104980,-0.997559,0.076220,-0.213415,0.030488
1549475336474,0.008789,-0.106262,-0.999451,0.076220,-0.198171,0.030488
1549475336482,0.007080,-0.105713,-0.999451,0.060976,-0.213415,0.045732
1549475336489,0.006592,-0.104797,-0.998413,0.091463,-0.213415,0.045732
1549475336504,0.006409,-0.106567,-0.996582,0.106707,-0.228659,0.045732
1549475336512,0.009338,-0.106506,-0.999451,0.091463,-0.243902,0.030488
1549475336519,0.009705,-0.106567,-1.000488,0.076220,-0.243902,0.030488
1549475336534,0.007629,-0.105347,-0.999329,0.121951,-0.213415,0.045732
1549475336542,0.008423,-0.105957,-0.998108,0.106707,-0.213415,0.045732
1549475336549,0.008423,-0.105957,-0.999390,0.091463,-0.213415,0.015244
1549475336564,0.009094,-0.105042,-0.999512,0.076220,-0.213415,0.000000
1549475336572,0.007751,-0.106262,-0.998779,0.091463,-0.228659,0.045732
1549475336586,0.009644,-0.105164,-0.999756,0.076220,-0.228659,0.030488
1549475336594,0.009888,-0.105774,-0.997192,0.076220,-0.228659,0.030488
1549475336602,0.008545,-0.104309,-1.000977,0.106707,-0.213415,0.045732
1549475336609,0.007996,-0.104065,-1.000305,0.091463,-0.228659,0.030488
1549475336624,0.007446,-0.104797,-1.001038,0.091463,-0.228659,0.045732
1549475336632,0.009155,-0.105469,-0.998230,0.091463,-0.228659,0.030488
1549475336639,0.008240,-0.105835,-0.998108,0.076220,-0.228659,0.045732
1549475336654,0.009399,-0.106262,-0.999329,0.106707,-0.228659,0.030488
1549475336662,0.009766,-0.106140,-0.998657,0.091463,-0.198171,0.015244
1549475336669,0.010620,-0.107117,-0.999695,0.091463,-0.198171,0.015244
1549475336684,0.008972,-0.105347,-1.001709,0.076220,-0.198171,0.030488
1549475336692,0.010071,-0.105286,-0.998047,0.091463,-0.213415,0.015244
1549475336700,0.009277,-0.105103,-0.997375,0.076220,-0.213415,0.045732
1549475336729,0.008484,-0.104858,-0.999573,0.076220,-0.213415,0.015244
1549475336736,0.010925,-0.104858,-0.999146,0.091463,-0.213415,0.015244
1549475336744,0.010010,-0.104980,-1.000244,0.060976,-0.198171,0.030488
1549475336752,0.008484,-0.106445,-1.001282,0.076220,-0.213415,0.045732
1549475336759,0.008118,-0.106262,-0.999634,0.076220,-0.228659,0.030488
1549475336767,0.008606,-0.106201,-0.998840,0.060976,-0.213415,0.015244
1549475336774,0.008850,-0.107239,-0.996033,0.106707,-0.228659,0.015244
1549475336788,0.009583,-0.104797,-0.998657,0.076220,-0.213415,0.030488
1549475336796,0.009583,-0.104492,-1.001099,0.091463,-0.213415,0.015244
1549475336804,0.010620,-0.103577,-0.998718,0.076220,-0.198171,0.045732
1549475336812,0.010132,-0.105042,-0.997681,0.091463,-0.198171,0.045732
1549475336819,0.008362,-0.105042,-1.000000,0.091463,-0.213415,0.045732
1549475336841,0.007507,-0.105042,-0.999146,0.060976,-0.228659,0.045732
1549475336849,0.007385,-0.105591,-0.999573,0.060976,-0.228659,0.030488
1549475336857,0.010132,-0.103760,-1.001282,0.091463,-0.198171,0.030488
1549475336864,0.009644,-0.104919,-1.000305,0.106707,-0.228659,0.030488
1549475336872,0.008545,-0.106323,-1.000977,0.106707,-0.213415,0.045732
1549475336887,0.010559,-0.106262,-1.000366,0.091463,-0.213415,0.015244
1549475336894,0.009155,-0.102417,-0.998352,0.076220,-0.213415,0.015244
1549475336902,0.009460,-0.103699,-0.997986,0.076220,-0.213415,0.015244
1549475336909,0.008606,-0.105225,-0.997070,0.060976,-0.228659,0.030488
1549475336924,0.009460,-0.103760,-0.998413,0.091463,-0.213415,0.045732
1549475336932,0.010254,-0.105408,-1.000732,0.076220,-0.213415,0.030488
1549475336939,0.007935,-0.105530,-1.000793,0.045732,-0.213415,0.015244
1549475336954,0.007935,-0.105530,-1.000305,0.060976,-0.198171,0.030488
1549475336962,0.009094,-0.105713,-0.998962,0.060976,-0.228659,0.015244
1549475336969,0.009399,-0.105957,-0.999207,0.045732,-0.228659,0.045732
1549475336985,0.010986,-0.106384,-1.001099,0.060976,-0.228659,0.045732
1549475336993,0.008362,-0.104370,-0.998047,0.076220,-0.213415,0.045732
1549475336999,0.008728,-0.104309,-0.997681,0.060976,-0.198171,0.030488
1549475337014,0.010071,-0.104492,-0.999084,0.076220,-0.198171,0.030488
1549475337022,0.010681,-0.105042,-1.000061,0.091463,-0.198171,0.030488
1549475337029,0.008789,-0.103333,-0.997681,0.106707,-0.228659,0.030488
1549475337044,0.007690,-0.104248,-0.997314,0.091463,-0.198171,0.030488
1549475337052,0.006836,-0.104309,-0.998352,0.076220,-0.213415,0.045732
1549475337059,0.008118,-0.104614,-0.999512,0.091463,-0.213415,0.030488
1549475337081,0.008118,-0.103394,-0.996460,0.076220,-0.182927,0.030488
1549475337088,0.010315,-0.103577,-0.996094,0.091463,-0.213415,0.030488
1549475337096,0.007935,-0.105591,-0.999023,0.091463,-0.243902,0.015244
1549475337104,0.009155,-0.105347,-0.998596,0.076220,-0.213415,0.015244
1549475337112,0.010620,-0.106140,-0.996155,0.091463,-0.228659,0.030488
1549475337127,0.009949,-0.103333,-0.999573,0.091463,-0.198171,0.045732
1549475337134,0.009155,-0.105774,-0.998352,0.091463,-0.198171,0.030488
1549475337142,0.009949,-0.104858,-1.000244,0.076220,-0.228659,0.015244
1549475337149,0.009399,-0.106384,-1.000183,0.076220,-0.228659,0.015244
1549475337164,0.008789,-0.106628,-0.996338,0.076220,-0.213415,0.030488
1549475337172,0.009399,-0.105591,-0.998596,0.060976,-0.182927,0.045732
1549475337179,0.009216,-0.104736,-0.999756,0.060976,-0.198171,0.030488
1549475337194,0.009338,-0.106384,-0.999146,0.076220,-0.213415,0.030488
1549475337208,0.008728,-0.107666,-0.998657,0.091463,-0.213415,0.000000
1549475337216,0.010132,-0.104675,-0.999939,0.076220,-0.228659,0.030488
1549475337224,0.009583,-0.105286,-1.000671,0.076220,-0.213415,0.030488
1549475337239,0.009521,-0.103882,-0.998962,0.076220,-0.213415,0.030488
1549475337247,0.008728,-0.104553,-0.999268,0.060976,-0.198171,0.030488
1549475337254,0.007263,-0.105408,-0.998413,0.060976,-0.228659,0.000000
1549475337262,0.007690,-0.105530,-0.999695,0.076220,-0.213415,0.015244
1549475337269,0.009033,-0.104919,-1.000061,0.076220,-0.228659,0.030488
1549475337284,0.009277,-0.106506,-0.998108,0.060976,-0.228659,0.015244
1549475337292,0.009033,-0.106140,-0.998535,0.030488,-0.228659,0.015244
1549475337299,0.008667,-0.104126,-0.998962,0.060976,-0.228659,0.030488
1549475337314,0.009888,-0.103516,-0.999939,0.060976,-0.198171,0.030488
1549475337322,0.009460,-0.105591,-1.000366,0.076220,-0.228659,0.015244
1549475337329,0.010376,-0.105652,-0.999573,0.091463,-0.228659,0.030488
1549475337344,0.010620,-0.104309,-0.997375,0.106707,-0.213415,0.045732
1549475337359,0.008301,-0.104370,-0.996338,0.091463,-0.228659,0.030488
1549475337367,0.009521,-0.105530,-0.999817,0.091463,-0.213415,0.030488
1549475337374,0.009766,-0.104736,-1.003174,0.091463,-0.213415,0.015244
1549475337382,0.007568,-0.104004,-0.998596,0.076220,-0.228659,0.015244
1549475337389,0.009827,-0.103638,-0.997559,0.076220,-0.213415,0.030488
1549475337411,0.009033,-0.106628,-0.998779,0.076220,-0.198171,0.015244
1549475337419,0.007690,-0.105164,-0.997498,0.076220,-0.198171,0.030488
1549475337426,0.009155,-0.105591,-0.998474,0.060976,-0.198171,0.030488
1549475337434,0.006653,-0.104187,-0.999390,0.091463,-0.198171,0.030488
1549475337442,0.008911,-0.103577,-0.999756,0.106707,-0.198171,0.030488
1549475337449,0.009521,-0.105469,-0.999084,0.091463,-0.182927,0.015244
1549475337464,0.008728,-0.106628,-0.999329,0.076220,-0.198171,0.015244
1549475337478,0.009521,-0.104736,-0.997498,0.076220,-0.228659,0.045732
1549475337486,0.008606,-0.106140,-0.998657,0.060976,-0.213415,0.045732
1549475337494,0.010193,-0.104736,-0.998718,0.076220,-0.198171,0.015244
1549475337502,0.009583,-0.104492,-0.996643,0.091463,-0.213415,0.015244
1549475337509,0.009949,-0.105469,-1.001160,0.091463,-0.198171,0.045732
1549475337524,0.007629,-0.104858,-1.001221,0.091463,-0.213415,0.015244
1549475337532,0.008667,-0.103699,-0.996277,0.076220,-0.198171,0.015244
1549475337539,0.010803,-0.105225,-0.999329,0.076220,-0.213415,0.045732
1549475337554,0.009705,-0.106567,-0.999268,0.106707,-0.228659,0.045732
1549475337562,0.008606,-0.105164,-0.997314,0.076220,-0.198171,0.015244
1549475337569,0.010132,-0.104431,-0.997803,0.076220,-0.213415,0.030488
1549475337584,0.009949,-0.104126,-0.998962,0.091463,-0.198171,0.045732
1549475337592,0.009949,-0.104980,-1.001160,0.091463,-0.228659,0.030488
1549475337599,0.009644,-0.105469,-0.999146,0.091463,-0.243902,0.015244
1549475337614,0.010498,-0.105042,-0.999695,0.076220,-0.228659,0.015244
1549475337622,0.011719,-0.102844,-0.999146,0.091463,-0.213415,0.030488
1549475337629,0.007812,-0.102722,-0.999023,0.091463,-0.198171,0.045732
1549475337644,0.008057,-0.104614,-1.001526,0.106707,-0.228659,0.015244
1549475337652,0.010010,-0.104309,-0.998840,0.106707,-0.213415,0.015244
1549475337659,0.009460,-0.105591,-0.996765,0.091463,-0.213415,0.030488
1549475337674,0.009033,-0.105225,-0.998840,0.091463,-0.228659,0.030488
1549475337682,0.009949,-0.104248,-0.999817,0.076220,-0.213415,0.030488
1549475337689,0.008850,-0.104187,-0.999207,0.076220,-0.243902,0.030488
1549475337711,0.008606,-0.106323,-0.998535,0.060976,-0.213415,0.015244
1549475337718,0.008850,-0.104919,-1.000244,0.091463,-0.198171,0.030488
1549475337726,0.007629,-0.103455,-0.999878,0.091463,-0.213415,0.030488
1549475337734,0.009949,-0.106506,-0.997620,0.060976,-0.213415,0.030488
1549475337742,0.008789,-0.105530,-0.995972,0.091463,-0.228659,0.015244
1549475337749,0.007935,-0.104614,-0.999573,0.106707,-0.213415,0.015244
1549475337764,0.010681,-0.105225,-0.997620,0.076220,-0.213415,0.015244
1549475337772,0.010742,-0.104736,-0.999207,0.076220,-0.228659,0.015244
1549475337779,0.009277,-0.106140,-0.999451,0.076220,-0.243902,0.030488
1549475337794,0.010010,-0.107422,-1.000854,0.060976,-0.243902,0.030488
1549475337802,0.009827,-0.107300,-1.000488,0.076220,-0.213415,0.030488
1549475337809,0.009644,-0.106506,-0.997437,0.076220,-0.198171,0.030488
1549475337824,0.010193,-0.103821,-1.001038,0.060976,-0.213415,0.015244
1549475337832,0.010193,-0.104370,-0.999756,0.091463,-0.213415,0.030488
1549475337839,0.007996,-0.104675,-1.000977,0.091463,-0.213415,0.015244
1549475337854,0.008057,-0.103210,-0.999268,0.076220,-0.198171,0.030488
1549475337862,0.009460,-0.107056,-0.998657,0.091463,-0.213415,0.045732
1549475337869,0.009827,-0.104004,-0.999512,0.060976,-0.213415,0.030488
1549475337884,0.009216,-0.104248,-0.999695,0.060976,-0.213415,0.015244
1549475337892,0.010132,-0.106628,-0.998901,0.091463,-0.213415,0.015244
1549475337899,0.008606,-0.105591,-0.998901,0.076220,-0.228659,0.015244
1549475337914,0.010315,-0.102783,-0.999878,0.091463,-0.228659,0.030488
1549475337922,0.008728,-0.104553,-0.998230,0.076220,-0.228659,0.045732
1549475337929,0.008423,-0.104980,-0.999634,0.076220,-0.243902,0.030488
1549475337951,0.007385,-0.104675,-1.002747,0.076220,-0.243902,0.030488
1549475337959,0.007019,-0.106506,-0.999451,0.076220,-0.213415,0.030488
1549475337966,0.007202,-0.105164,-0.999512,0.076220,-0.228659,0.030488
1549475337974,0.009521,-0.104126,-0.996704,0.106707,-0.243902,0.015244
1549475337982,0.008850,-0.103943,-0.998291,0.076220,-0.213415,0.015244
1549475337989,0.009460,-0.104797,-1.000305,0.091463,-0.213415,0.030488
1549475338004,0.011475,-0.105042,-1.000122,0.121951,-0.228659,0.030488
1549475338012,0.010010,-0.104980,-0.999023,0.091463,-0.228659,0.045732
1549475338026,0.008545,-0.105774,-0.997131,0.091463,-0.213415,0.030488
1549475338034,0.007996,-0.104248,-1.001282,0.091463,-0.228659,0.015244
1549475338042,0.009338,-0.105469,-1.000916,0.091463,-0.228659,0.015244
1549475338049,0.008545,-0.105347,-0.999207,0.091463,-0.213415,0.015244
1549475338064,0.008728,-0.104736,-1.000793,0.091463,-0.213415,0.015244
1549475338072,0.009155,-0.103455,-0.997925,0.076220,-0.228659,0.030488
1549475338079,0.008667,-0.104797,-0.998596,0.091463,-0.228659,0.015244
1549475338094,0.009521,-0.102722,-0.999146,0.091463,-0.228659,0.030488
1549475338102,0.009216,-0.106018,-1.000366,0.091463,-0.228659,0.045732
1549475338109,0.009827,-0.104553,-0.998901,0.106707,-0.213415,0.030488
1549475338124,0.009399,-0.105408,-0.998413,0.076220,-0.213415,0.015244
1549475338132,0.009155,-0.106628,-0.996033,0.076220,-0.213415,0.030488
1549475338139,0.009338,-0.105164,-0.998291,0.091463,-0.228659,0.015244
1549475338155,0.010803,-0.105652,-1.003479,0.076220,-0.213415,0.030488
1549475338162,0.009338,-0.104736,-1.000366,0.091463,-0.228659,0.030488
1549475338169,0.009644,-0.104614,-0.998108,0.091463,-0.213415,0.000000
1549475338184,0.009521,-0.105713,-0.999451,0.091463,-0.198171,0.015244
1549475338192,0.009399,-0.105835,-1.000183,0.076220,-0.213415,0.045732
1549475338199,0.006714,-0.103638,-0.999939,0.076220,-0.213415,0.030488
1549475338214,0.009216,-0.105408,-1.000244,0.076220,-0.213415,0.030488
1549475338222,0.009949,-0.103821,-0.998535,0.076220,-0.213415,0.030488
1549475338229,0.007996,-0.103760,-1.000183,0.091463,-0.213415,0.015244
1549475338244,0.008789,-0.104553,-0.999207,0.076220,-0.228659,0.030488
1549475338252,0.008179,-0.104492,-1.000122,0.076220,-0.198171,0.030488
1549475338259,0.009827,-0.104736,-0.999451,0.106707,-0.198171,0.045732
1549475338274,0.009338,-0.106201,-0.998901,0.076220,-0.213415,0.030488
1549475338282,0.008423,-0.105713,-0.997986,0.076220,-0.228659,0.030488
1549475338289,0.009399,-0.103516,-0.999084,0.076220,-0.243902,0.030488
1549475338304,0.008484,-0.104736,-0.999390,0.091463,-0.228659,0.015244
1549475338312,0.009399,-0.106079,-0.997864,0.060976,-0.213415,0.015244
1549475338319,0.010010,-0.104736,-0.998718,0.076220,-0.213415,0.015244
1549475338341,0.008057,-0.104919,-0.999207,0.091463,-0.228659,0.045732
1549475338349,0.006714,-0.105713,-0.997803,0.091463,-0.213415,0.030488
1549475338357,0.009521,-0.106140,-0.997986,0.076220,-0.228659,0.015244
1549475338364,0.009583,-0.105042,-1.000549,0.091463,-0.243902,0.015244
1549475338372,0.010132,-0.105530,-0.999878,0.076220,-0.228659,0.030488
1549475338394,0.009521,-0.105652,-0.995422,0.076220,-0.213415,0.030488
1549475338402,0.006714,-0.105530,-0.997009,0.076220,-0.228659,0.015244
1549475338409,0.009521,-0.106384,-1.001404,0.076220,-0.228659,0.015244
1549475338423,0.010864,-0.105286,-0.999390,0.076220,-0.228659,0.030488
1549475338431,0.008484,-0.105530,-0.999939,0.076220,-0.228659,0.015244
1549475338439,0.008423,-0.105347,-0.998230,0.060976,-0.213415,0.015244
1549475338447,0.010559,-0.104980,-0.996704,0.060976,-0.213415,0.030488
1549475338455,0.008911,-0.103638,-0.999146,0.106707,-0.213415,0.015244
1549475338469,0.007507,-0.103882,-0.998352,0.091463,-0.228659,0.015244
1549475338477,0.007446,-0.103577,-0.999207,0.076220,-0.213415,0.045732
1549475338484,0.007690,-0.106201,-0.999451,0.091463,-0.213415,0.045732
1549475338492,0.007996,-0.105713,-1.001038,0.076220,-0.243902,0.000000
1549475338499,0.009583,-0.106079,-0.998596,0.076220,-0.213415,0.015244
1549475338514,0.009766,-0.105408,-0.997498,0.091463,-0.213415,0.015244
1549475338522,0.007629,-0.104614,-0.999268,0.091463,-0.228659,0.030488
1549475338529,0.008667,-0.105591,-0.999451,0.076220,-0.228659,0.015244
1549475338544,0.010803,-0.105835,-0.998047,0.060976,-0.213415,0.015244
1549475338552,0.009338,-0.105469,-0.998474,0.091463,-0.213415,0.030488
1549475338559,0.008179,-0.104858,-1.000122,0.091463,-0.228659,0.030488
1549475338574,0.008301,-0.104370,-0.999268,0.060976,-0.213415,0.000000
1549475338582,0.007019,-0.105286,-1.001404,0.060976,-0.213415,0.015244
1549475338589,0.009949,-0.105103,-1.000366,0.076220,-0.228659,0.045732
1549475338604,0.010071,-0.105042,-1.000244,0.091463,-0.228659,0.030488
1549475338612,0.009216,-0.103760,-0.997681,0.091463,-0.213415,0.015244
1549475338619,0.009277,-0.105530,-0.997864,0.076220,-0.198171,0.015244
1549475338634,0.009460,-0.103638,-1.000244,0.091463,-0.213415,0.015244
1549475338649,0.010193,-0.106018,-1.001282,0.091463,-0.243902,0.030488
1549475338657,0.009460,-0.104370,-0.997131,0.091463,-0.228659,0.030488
1549475338671,0.008606,-0.104919,-0.998718,0.091463,-0.198171,0.030488
1549475338679,0.009705,-0.104858,-1.001709,0.076220,-0.213415,0.045732
1549475338686,0.010864,-0.106079,-1.001221,0.076220,-0.213415,0.045732
1549475338694,0.009399,-0.105103,-0.999817,0.076220,-0.228659,0.030488
1549475338702,0.008362,-0.104187,-1.001709,0.060976,-0.259146,0.030488
1549475338709,0.009399,-0.104736,-0.998962,0.076220,-0.228659,0.015244
1549475338724,0.010437,-0.106323,-1.000000,0.091463,-0.213415,0.030488
1549475338732,0.009277,-0.105530,-0.998657,0.076220,-0.213415,0.030488
1549475338739,0.010620,-0.102539,-0.998840,0.091463,-0.213415,0.015244
1549475338754,0.008667,-0.105408,-0.999756,0.091463,-0.228659,0.045732
1549475338762,0.008423,-0.106506,-0.997192,0.091463,-0.228659,0.030488
1549475338769,0.009277,-0.104004,-0.998596,0.076220,-0.213415,0.030488
1549475338784,0.006775,-0.104309,-0.999023,0.091463,-0.213415,0.030488
1549475338792,0.008179,-0.105713,-0.998962,0.060976,-0.228659,0.030488
1549475338799,0.007690,-0.104004,-0.994995,0.060976,-0.213415,0.030488
1549475338814,0.009277,-0.105408,-0.998474,0.091463,-0.213415,0.045732
1549475338822,0.007935,-0.106628,-0.999756,0.106707,-0.228659,0.030488
1549475338829,0.007141,-0.104309,-1.000549,0.091463,-0.228659,0.030488
1549475338844,0.009277,-0.104675,-1.001221,0.091463,-0.228659,0.015244
1549475338858,0.007996,-0.104309,-1.000244,0.091463,-0.243902,0.000000
1549475338866,0.008057,-0.104553,-0.997620,0.106707,-0.228659,0.030488
1549475338874,0.009888,-0.105652,-0.998352,0.076220,-0.243902,0.030488
1549475338882,0.008057,-0.105896,-0.999756,0.076220,-0.228659,0.015244
1549475338889,0.009155,-0.105469,-0.999695,0.091463,-0.198171,0.015244
1549475338904,0.009094,-0.104309,-0.998535,0.076220,-0.213415,0.045732
1549475338912,0.008911,-0.104797,-1.000305,0.076220,-0.228659,0.045732
1549475338920,0.008545,-0.103516,-1.000183,0.091463,-0.213415,0.030488
1549475338934,0.009705,-0.104675,-0.998413,0.091463,-0.213415,0.030488
1549475338942,0.008728,-0.105042,-0.999268,0.076220,-0.213415,0.030488
1549475338949,0.009949,-0.106018,-0.997742,0.091463,-0.213415,0.030488
1549475338964,0.007996,-0.106445,-0.999329,0.091463,-0.198171,0.030488
1549475338972,0.008667,-0.105469,-0.998108,0.091463,-0.228659,0.030488
1549475338979,0.009583,-0.104004,-0.999207,0.106707,-0.228659,0.030488
1549475338994,0.009033,-0.103271,-0.999451,0.106707,-0.213415,0.030488
1549475339002,0.009216,-0.106628,-0.999695,0.106707,-0.243902,0.045732
1549475339009,0.010193,-0.106262,-0.998718,0.091463,-0.228659,0.030488
1549475339024,0.010132,-0.103882,-1.000183,0.091463,-0.198171,0.030488
1549475339032,0.011658,-0.104248,-0.996948,0.106707,-0.213415,0.030488
1549475339039,0.008240,-0.105835,-0.999023,0.091463,-0.228659,0.045732
1549475339054,0.007935,-0.104736,-0.999939,0.076220,-0.213415,0.030488
1549475339069,0.008240,-0.104492,-1.000183,0.076220,-0.182927,0.030488
1549475339076,0.008423,-0.105286,-0.998657,0.091463,-0.228659,0.045732
1549475339084,0.008728,-0.104736,-0.999329,0.091463,-0.228659,0.045732
1549475339099,0.008240,-0.106140,-0.997498,0.076220,-0.213415,0.030488
1549475339106,0.011414,-0.106934,-1.002136,0.076220,-0.198171,0.045732
1549475339114,0.010498,-0.106140,-0.999573,0.091463,-0.213415,0.030488
1549475339122,0.010559,-0.104675,-0.997559,0.076220,-0.213415,0.045732
1549475339129,0.007935,-0.104248,-0.997131,0.091463,-0.198171,0.030488
1549475339152,0.008972,-0.104736,-0.999146,0.091463,-0.198171,0.015244
1549475339159,0.008972,-0.104919,-1.000488,0.091463,-0.213415,0.030488
1549475339174,0.007446,-0.105164,-1.000061,0.091463,-0.228659,0.015244
1549475339181,0.007446,-0.104431,-0.998718,0.106707,-0.198171,0.015244
1549475339189,0.009705,-0.103638,-0.999939,0.091463,-0.213415,0.030488
1549475339196,0.008972,-0.103455,-0.998352,0.076220,-0.228659,0.045732
1549475339204,0.008179,-0.106140,-0.998413,0.076220,-0.228659,0.030488
1549475339212,0.010193,-0.106140,-1.000488,0.091463,-0.213415,0.045732
1549475339220,0.010254,-0.106506,-0.998596,0.091463,-0.213415,0.045732
1549475339234,0.007812,-0.105103,-0.998108,0.091463,-0.213415,0.045732
1549475339242,0.009460,-0.104126,-1.000793,0.060976,-0.198171,0.030488
1549475339249,0.008606,-0.105591,-0.999390,0.091463,-0.213415,0.030488
1549475339264,0.008972,-0.105591,-1.000122,0.106707,-0.213415,0.015244
1549475339279,0.010803,-0.104797,-1.000916,0.091463,-0.228659,0.000000
1549475339286,0.009827,-0.105347,-0.999451,0.076220,-0.228659,0.030488
1549475339294,0.009277,-0.103760,-0.999084,0.076220,-0.198171,0.030488
1549475339302,0.008118,-0.106262,-1.000427,0.060976,-0.213415,0.045732
1549475339309,0.009094,-0.104675,-0.999695,0.076220,-0.198171,0.030488
1549475339324,0.008972,-0.105591,-0.999268,0.091463,-0.213415,0.030488
1549475339332,0.009521,-0.104675,-0.997498,0.060976,-0.228659,0.015244
1549475339339,0.008911,-0.104431,-1.000244,0.091463,-0.243902,0.030488
1549475339354,0.010681,-0.103333,-1.000305,0.091463,-0.198171,0.030488
1549475339362,0.009888,-0.107056,-0.998596,0.076220,-0.213415,0.015244
1549475339369,0.010315,-0.105164,-0.997742,0.076220,-0.228659,0.000000
1549475339384,0.010376,-0.103149,-0.998657,0.076220,-0.213415,0.000000
1549475339392,0.009583,-0.103638,-1.000488,0.091463,-0.243902,0.030488
1549475339399,0.008118,-0.104431,-1.000244,0.076220,-0.213415,0.030488
1549475339414,0.009033,-0.105347,-0.999146,0.091463,-0.213415,0.015244
1549475339428,0.009644,-0.105408,-0.997986,0.106707,-0.198171,0.015244
1549475339436,0.009094,-0.106873,-1.000366,0.106707,-0.213415,0.030488
1549475339444,0.008728,-0.107361,-1.000793,0.091463,-0.213415,0.030488
1549475339459,0.009583,-0.106323,-0.998840,0.091463,-0.213415,0.030488
1549475339466,0.010925,-0.105469,-0.997742,0.091463,-0.213415,0.030488
1549475339475,0.010071,-0.104309,-0.998657,0.076220,-0.213415,0.030488
1549475339482,0.008545,-0.103760,-0.998169,0.076220,-0.182927,0.030488
1549475339496,0.006592,-0.104614,-0.998535,0.076220,-0.198171,0.030488
1549475339504,0.007690,-0.104736,-0.998169,0.076220,-0.213415,0.045732
1549475339512,0.008728,-0.105774,-0.999207,0.076220,-0.228659,0.030488
1549475339519,0.009216,-0.106506,-0.999146,0.091463,-0.213415,0.030488
1549475339534,0.011108,-0.105103,-1.000305,0.091463,-0.213415,0.015244
1549475339542,0.008789,-0.106567,-1.000916,0.076220,-0.228659,0.000000
1549475339549,0.008423,-0.104370,-0.998230,0.060976,-0.213415,0.030488
1549475339564,0.008118,-0.105652,-0.997192,0.091463,-0.228659,0.030488
1549475339586,0.008423,-0.105835,-0.996460,0.091463,-0.228659,0.030488
1549475339594,0.008789,-0.105591,-0.998657,0.091463,-0.198171,0.015244
1549475339601,0.009460,-0.103638,-0.996704,0.091463,-0.213415,0.000000
1549475339609,0.010071,-0.104675,-0.998718,0.076220,-0.228659,0.030488
1549475339617,0.010620,-0.104675,-1.000732,0.091463,-0.213415,0.030488
1549475339624,0.008545,-0.105408,-1.000122,0.076220,-0.213415,0.045732
1549475339632,0.007751,-0.103210,-1.001038,0.106707,-0.213415,0.030488
1549475339639,0.008240,-0.102966,-0.999329,0.076220,-0.228659,0.030488
1549475339654,0.006714,-0.105652,-1.000305,0.076220,-0.213415,0.015244
1549475339662,0.008545,-0.102783,-0.999939,0.091463,-0.243902,0.030488
1549475339669,0.008118,-0.103760,-0.997803,0.076220,-0.213415,0.030488
1549475339684,0.010437,-0.103821,-0.999878,0.076220,-0.198171,0.030488
1549475339692,0.009155,-0.104370,-0.998718,0.076220,-0.213415,0.030488
1549475339699,0.008911,-0.104614,-0.999573,0.091463,-0.228659,0.045732
1549475339714,0.009949,-0.104126,-0.997742,0.076220,-0.213415,0.015244
1549475339722,0.008911,-0.105286,-1.000732,0.076220,-0.213415,0.030488
1549475339729,0.009216,-0.103760,-1.000061,0.091463,-0.198171,0.045732
1549475339744,0.010559,-0.103577,-0.997253,0.091463,-0.228659,0.045732
1549475339752,0.009766,-0.105896,-0.997192,0.106707,-0.243902,0.030488
1549475339759,0.007812,-0.106506,-0.999390,0.091463,-0.228659,0.045732
1549475339774,0.008789,-0.105774,-0.998718,0.060976,-0.198171,0.000000
1549475339782,0.008301,-0.103882,-1.001587,0.076220,-0.213415,-0.015244
1549475339790,0.008728,-0.104980,-0.999023,0.091463,-0.228659,0.000000
1549475339804,0.008972,-0.103882,-0.999939,0.091463,-0.213415,0.030488
1549475339812,0.008972,-0.105408,-0.998962,0.091463,-0.228659,0.030488
1549475339819,0.007996,-0.105164,-1.001099,0.076220,-0.228659,0.030488
1549475339834,0.007874,-0.105164,-0.997803,0.076220,-0.213415,0.015244
1549475339842,0.008606,-0.105347,-0.998962,0.076220,-0.213415,0.030488
1549475339849,0.009033,-0.104187,-1.000549,0.076220,-0.228659,0.030488
1549475339864,0.009216,-0.104187,-0.998962,0.091463,-0.228659,0.030488
1549475339872,0.009705,-0.106812,-0.996338,0.076220,-0.198171,0.030488
1549475339879,0.010498,-0.105408,-0.994446,0.091463,-0.213415,0.045732
1549475339901,0.008057,-0.104248,-0.999878,0.076220,-0.228659,0.030488
1549475339909,0.008911,-0.104858,-1.001404,0.106707,-0.243902,0.015244
1549475339916,0.009216,-0.104797,-0.999146,0.106707,-0.228659,0.030488
1549475339924,0.008789,-0.105957,-0.997314,0.106707,-0.198171,0.030488
1549475339932,0.008789,-0.104980,-1.000549,0.076220,-0.213415,0.015244
1549475339939,0.009216,-0.104431,-0.996948,0.060976,-0.213415,0.015244
1549475339954,0.009338,-0.105347,-0.996277,0.076220,-0.213415,0.000000
1549475339962,0.007935,-0.104248,-0.998657,0.076220,-0.228659,0.030488
1549475339976,0.009888,-0.105164,-0.999512,0.045732,-0.228659,0.030488
1549475339984,0.011047,-0.105896,-1.001160,0.045732,-0.213415,0.015244
1549475339992,0.009216,-0.105286,-0.999268,0.091463,-0.243902,0.030488
1549475339999,0.010437,-0.105286,-0.997070,0.106707,-0.213415,0.045732
1549475340023,0.010315,-0.106323,-0.995850,0.076220,-0.228659,0.030488
1549475340029,0.007019,-0.104919,-0.996643,0.076220,-0.213415,0.030488
1549475340037,0.009949,-0.103943,-1.000305,0.076220,-0.243902,0.030488
1549475340044,0.007874,-0.107849,-0.999756,0.076220,-0.228659,0.030488
1549475340051,0.007385,-0.106323,-0.999390,0.091463,-0.213415,0.045732
1549475340059,0.009094,-0.105835,-0.998474,0.076220,-0.228659,0.030488
1549475340074,0.009827,-0.105042,-0.999634,0.076220,-0.213415,0.030488
1549475340089,0.007996,-0.105652,-0.998840,0.091463,-0.198171,0.030488
1549475340097,0.009277,-0.105591,-0.999573,0.106707,-0.243902,0.030488
1549475340104,0.008484,-0.103699,-0.997925,0.091463,-0.228659,0.030488
1549475340112,0.007751,-0.103210,-0.996826,0.091463,-0.213415,0.030488
1549475340119,0.009644,-0.106445,-0.999878,0.076220,-0.213415,0.015244
1549475340141,0.008606,-0.104187,-0.998230,0.076220,-0.213415,0.030488
1549475340148,0.007874,-0.104187,-0.997559,0.091463,-0.213415,0.030488
1549475340156,0.011658,-0.105164,-0.997864,0.076220,-0.213415,0.045732
1549475340171,0.008667,-0.103210,-1.000183,0.076220,-0.228659,0.030488
1549475340178,0.007812,-0.103271,-0.999207,0.091463,-0.228659,0.030488
1549475340186,0.008545,-0.105652,-0.997559,0.106707,-0.213415,0.045732
1549475340194,0.008911,-0.103027,-0.996948,0.076220,-0.213415,0.030488
1549475340202,0.009460,-0.104004,-1.000305,0.106707,-0.213415,0.030488
1549475340224,0.009155,-0.105530,-0.999878,0.091463,-0.228659,0.030488
1549475340231,0.010498,-0.104858,-0.998108,0.091463,-0.228659,0.030488
1549475340239,0.009644,-0.104858,-0.997070,0.106707,-0.213415,0.030488
1549475340253,0.008423,-0.103516,-0.998047,0.091463,-0.213415,0.000000
1549475340261,0.007324,-0.105347,-0.998657,0.091463,-0.228659,0.045732
1549475340268,0.006714,-0.103760,-1.000061,0.106707,-0.198171,0.030488
1549475340276,0.009644,-0.104614,-0.997742,0.091463,-0.198171,0.045732
1549475340284,0.008423,-0.105530,-0.997925,0.091463,-0.228659,0.045732
1549475340292,0.009766,-0.107178,-0.999756,0.106707,-0.213415,0.015244
1549475340299,0.008728,-0.103394,-1.000122,0.076220,-0.198171,0.030488
1549475340314,0.009277,-0.103333,-0.998352,0.060976,-0.213415,0.045732
1549475340336,0.009521,-0.104248,-0.998596,0.076220,-0.213415,0.015244
1549475340343,0.009766,-0.104248,-0.997070,0.076220,-0.213415,0.045732
1549475340351,0.010986,-0.105408,-0.995544,0.060976,-0.213415,0.045732
1549475340358,0.009583,-0.105713,-0.999390,0.076220,-0.228659,0.030488
1549475340366,0.009155,-0.105835,-1.000671,0.091463,-0.228659,0.030488
1549475340374,0.008423,-0.104187,-1.001648,0.076220,-0.213415,0.030488
1549475340382,0.008850,-0.105408,-1.001038,0.091463,-0.213415,0.045732
1549475340389,0.008545,-0.103821,-1.000183,0.076220,-0.198171,0.015244
1549475340411,0.008789,-0.103333,-0.998352,0.045732,-0.213415,0.030488
1549475340418,0.009827,-0.106384,-0.996887,0.076220,-0.213415,0.030488
1549475340426,0.009399,-0.104065,-1.000305,0.076220,-0.213415,0.045732
1549475340434,0.009338,-0.105896,-1.000671,0.091463,-0.213415,0.030488
1549475340442,0.010498,-0.107544,-0.996094,0.091463,-0.213415,0.015244
1549475340449,0.008728,-0.105530,-0.997314,0.076220,-0.213415,0.030488
1549475340464,0.008728,-0.103638,-0.998108,0.091463,-0.213415,0.015244
1549475340472,0.008972,-0.105591,-0.997375,0.060976,-0.213415,0.030488
1549475340479,0.008728,-0.105103,-1.000427,0.091463,-0.213415,0.030488
1549475340494,0.009155,-0.104492,-1.000244,0.091463,-0.228659,0.030488
1549475340502,0.008972,-0.105530,-0.997803,0.091463,-0.228659,0.030488
1549475340509,0.009155,-0.105225,-0.998962,0.091463,-0.213415,0.030488
1549475340524,0.008728,-0.102966,-1.002014,0.076220,-0.228659,0.030488
1549475340532,0.008057,-0.105591,-1.000854,0.091463,-0.228659,0.015244
1549475340539,0.009460,-0.106750,-0.999695,0.091463,-0.213415,0.015244
1549475340554,0.009827,-0.105713,-0.998596,0.076220,-0.213415,0.030488
1549475340562,0.010315,-0.106384,-0.999939,0.106707,-0.228659,0.030488
1549475340569,0.010742,-0.106201,-0.999878,0.106707,-0.228659,0.015244
1549475340584,0.008972,-0.106323,-0.999817,0.076220,-0.213415,0.015244
1549475340592,0.008972,-0.106201,-1.000366,0.091463,-0.213415,0.015244
1549475340599,0.010559,-0.105469,-1.000610,0.091463,-0.228659,0.015244
1549475340614,0.009094,-0.105103,-0.998901,0.076220,-0.198171,0.030488
1549475340622,0.009583,-0.104187,-0.999512,0.091463,-0.198171,0.045732
1549475340629,0.010315,-0.104065,-0.999695,0.076220,-0.213415,0.030488
1549475340644,0.008606,-0.105957,-0.998413,0.076220,-0.213415,0.030488
1549475340652,0.011230,-0.103821,-0.997681,0.121951,-0.213415,0.015244
1549475340659,0.008728,-0.104675,-1.000732,0.106707,-0.228659,0.030488
1549475340674,0.007202,-0.105530,-1.001099,0.091463,-0.228659,0.015244
1549475340682,0.007690,-0.105225,-0.998230,0.091463,-0.213415,0.030488
1549475340689,0.008972,-0.105347,-0.998169,0.091463,-0.228659,0.030488
1549475340704,0.008179,-0.102844,-1.000549,0.076220,-0.198171,0.015244
1549475340712,0.009399,-0.106628,-0.996643,0.060976,-0.213415,0.015244
1549475340719,0.009766,-0.105835,-0.999634,0.076220,-0.213415,0.045732
1549475340734,0.006653,-0.104431,-0.999023,0.091463,-0.228659,0.045732
1549475340742,0.009583,-0.104431,-0.996826,0.106707,-0.213415,0.045732
1549475340749,0.010925,-0.105530,-1.000183,0.076220,-0.228659,0.030488
1549475340764,0.006714,-0.104797,-0.999084,0.076220,-0.228659,0.030488
1549475340772,0.010010,-0.104126,-0.998535,0.091463,-0.198171,0.015244
1549475340779,0.009827,-0.103455,-0.999023,0.091463,-0.213415,0.030488
1549475340794,0.007812,-0.104492,-0.999207,0.091463,-0.228659,0.015244
1549475340802,0.008667,-0.105835,-0.999817,0.076220,-0.198171,0.030488
1549475340809,0.007507,-0.105164,-1.002075,0.076220,-0.213415,0.015244
1549475340824,0.010559,-0.105225,-0.999207,0.091463,-0.198171,0.030488
1549475340832,0.010437,-0.105591,-0.997559,0.091463,-0.213415,0.030488
1549475340839,0.009094,-0.104187,-0.999084,0.091463,-0.213415,0.015244
1549475340854,0.008606,-0.103638,-0.998047,0.076220,-0.213415,0.030488
1549475340862,0.010071,-0.106384,-0.997986,0.076220,-0.213415,0.030488
1549475340869,0.009033,-0.105286,-0.997742,0.091463,-0.213415,0.030488
1549475340884,0.009155,-0.103943,-0.998718,0.060976,-0.213415,0.030488
1549475340892,0.009216,-0.103821,-0.996399,0.076220,-0.228659,0.030488
1549475340899,0.007629,-0.106201,-0.996582,0.076220,-0.198171,0.015244
1549475340914,0.008179,-0.104614,-0.999268,0.091463,-0.213415,0.030488
1549475340922,0.008484,-0.104370,-0.997864,0.060976,-0.213415,0.030488
1549475340929,0.006592,-0.106140,-0.997437,0.076220,-0.198171,0.030488
1549475340944,0.007141,-0.103638,-1.000122,0.091463,-0.228659,0.015244
1549475340952,0.008911,-0.104065,-0.998291,0.076220,-0.228659,0.015244
1549475340966,0.008850,-0.104492,-0.999451,0.076220,-0.213415,0.045732
1549475340974,0.008728,-0.104858,-0.996765,0.106707,-0.213415,0.045732
1549475340982,0.008179,-0.104858,-0.997620,0.091463,-0.198171,0.030488
1549475340989,0.008179,-0.106018,-0.997253,0.106707,-0.198171,0.030488
1549475341004,0.008728,-0.105652,-1.002197,0.091463,-0.198171,0.030488
1549475341012,0.008911,-0.105103,-1.001221,0.106707,-0.198171,0.015244
1549475341019,0.009277,-0.106384,-0.997742,0.091463,-0.198171,0.045732
1549475341034,0.009644,-0.104736,-0.999329,0.076220,-0.228659,0.045732
1549475341042,0.008423,-0.104797,-1.000854,0.091463,-0.213415,0.030488
1549475341049,0.010132,-0.103516,-0.999268,0.091463,-0.228659,0.045732
1549475341064,0.010559,-0.105408,-0.997803,0.060976,-0.228659,0.030488
1549475341072,0.008545,-0.106018,-0.997620,0.091463,-0.228659,0.015244
1549475341079,0.007568,-0.104187,-1.000305,0.091463,-0.198171,0.030488
1549475341094,0.007874,-0.103699,-1.000366,0.091463,-0.213415,0.045732
1549475341102,0.009155,-0.107239,-1.000000,0.091463,-0.198171,0.030488
1549475341109,0.008606,-0.104492,-0.996094,0.076220,-0.213415,0.030488
1549475341124,0.008972,-0.104248,-0.998962,0.076220,-0.213415,0.015244
1549475341132,0.010010,-0.106018,-0.999268,0.076220,-0.228659,0.030488
1549475341139,0.009949,-0.104858,-0.999512,0.091463,-0.228659,0.030488
1549475341154,0.007996,-0.105408,-0.997681,0.076220,-0.213415,0.030488
1549475341162,0.009277,-0.106079,-0.999512,0.076220,-0.213415,0.030488
1549475341169,0.009277,-0.105225,-0.998291,0.091463,-0.213415,0.015244
1549475341184,0.008118,-0.103271,-0.999329,0.091463,-0.213415,0.030488
1549475341192,0.010193,-0.104004,-1.000549,0.091463,-0.228659,0.030488
1549475341199,0.010132,-0.105286,-0.999268,0.106707,-0.213415,0.015244
1549475341214,0.008850,-0.106750,-0.999084,0.091463,-0.198171,0.015244
1549475341222,0.012817,-0.105408,-1.001099,0.091463,-0.213415,0.030488
1549475341229,0.009949,-0.103821,-0.998718,0.076220,-0.213415,0.030488
1549475341244,0.008301,-0.106018,-0.997925,0.076220,-0.213415,0.030488
1549475341252,0.008545,-0.106262,-1.000122,0.091463,-0.213415,0.030488
1549475341259,0.008362,-0.104858,-0.999023,0.091463,-0.228659,0.030488
1549475341274,0.009094,-0.105530,-0.998901,0.091463,-0.228659,0.030488
1549475341288,0.007874,-0.104797,-1.000549,0.091463,-0.213415,0.015244
1549475341296,0.009949,-0.103821,-0.998962,0.076220,-0.213415,0.030488
1549475341303,0.008850,-0.104309,-0.996094,0.076220,-0.213415,0.030488
1549475341312,0.008606,-0.104309,-0.999817,0.091463,-0.213415,0.030488
1549475341319,0.010620,-0.105774,-1.000671,0.076220,-0.228659,0.015244
1549475341334,0.010620,-0.105347,-0.996277,0.091463,-0.198171,0.030488
1549475341342,0.008423,-0.104309,-0.996582,0.076220,-0.228659,0.045732
1549475341349,0.009521,-0.104614,-1.000183,0.091463,-0.213415,0.030488
1549475341364,0.008667,-0.104309,-0.999634,0.091463,-0.213415,0.015244
1549475341372,0.007568,-0.103821,-0.997375,0.091463,-0.213415,0.030488
1549475341380,0.008545,-0.104370,-1.001282,0.076220,-0.213415,0.015244
1549475341394,0.009705,-0.105835,-1.000610,0.076220,-0.213415,0.015244
1549475341402,0.008972,-0.104736,-0.998901,0.091463,-0.213415,0.030488
1549475341409,0.009949,-0.104736,-0.998047,0.106707,-0.243902,0.015244
1549475341417,0.009949,-0.104492,-0.999084,0.076220,-0.213415,0.015244
1549475341439,0.009338,-0.103760,-0.998779,0.076220,-0.213415,0.015244
1549475341447,0.009277,-0.103882,-0.997864,0.060976,-0.213415,0.015244
1549475341454,0.008423,-0.104065,-0.996704,0.060976,-0.228659,0.015244
1549475341462,0.010132,-0.104675,-1.000488,0.060976,-0.228659,0.000000
1549475341469,0.009033,-0.105530,-1.000549,0.106707,-0.228659,0.030488
1549475341477,0.009277,-0.104736,-0.998352,0.091463,-0.198171,0.030488
1549475341492,0.008545,-0.104553,-0.997864,0.060976,-0.228659,0.045732
1549475341499,0.009766,-0.106018,-0.998474,0.091463,-0.228659,0.030488
1549475341507,0.008118,-0.105042,-0.999512,0.076220,-0.228659,0.030488
1549475341522,0.008606,-0.105286,-0.998535,0.076220,-0.213415,0.030488
1549475341529,0.008545,-0.105713,-0.999939,0.076220,-0.213415,0.030488
1549475341537,0.008850,-0.104919,-1.000122,0.076220,-0.213415,0.030488
1549475341552,0.007568,-0.104187,-0.996643,0.091463,-0.228659,0.030488
1549475341559,0.009521,-0.105103,-0.996521,0.076220,-0.213415,0.030488
1549475341567,0.006897,-0.105652,-1.000366,0.091463,-0.228659,0.030488
1549475341582,0.007935,-0.106079,-1.000061,0.091463,-0.213415,0.030488
1549475341589,0.010010,-0.105103,-0.999573,0.106707,-0.198171,0.045732
1549475341604,0.008484,-0.104736,-0.999329,0.091463,-0.228659,0.030488
1549475341612,0.008423,-0.104858,-1.000488,0.076220,-0.213415,0.015244
1549475341619,0.008972,-0.105225,-0.997070,0.076220,-0.213415,0.030488
1549475341627,0.007690,-0.105042,-0.999146,0.091463,-0.213415,0.045732
1549475341648,0.007629,-0.105713,-0.999878,0.091463,-0.213415,0.015244
1549475341656,0.009155,-0.106018,-0.997986,0.106707,-0.213415,0.015244
1549475341663,0.008667,-0.104248,-0.999573,0.060976,-0.228659,0.015244
1549475341672,0.009155,-0.103882,-0.995911,0.091463,-0.228659,0.015244
1549475341679,0.009460,-0.103699,-0.998901,0.091463,-0.228659,0.015244
1549475341687,0.008728,-0.104553,-0.998291,0.091463,-0.213415,0.015244
1549475341702,0.008118,-0.104614,-0.999390,0.076220,-0.198171,0.015244
1549475341709,0.009888,-0.103516,-0.999878,0.076220,-0.213415,0.015244
1549475341717,0.010132,-0.106323,-0.998657,0.091463,-0.228659,0.015244
1549475341732,0.008301,-0.104614,-0.999268,0.076220,-0.228659,0.015244
1549475341739,0.008057,-0.104431,-0.999329,0.091463,-0.213415,0.030488
1549475341747,0.010803,-0.105774,-0.997009,0.091463,-0.198171,0.030488
1549475341762,0.009705,-0.104187,-0.999390,0.091463,-0.182927,0.030488
1549475341769,0.008423,-0.105469,-1.000977,0.091463,-0.213415,0.030488
1549475341777,0.008545,-0.104736,-0.996033,0.091463,-0.213415,0.015244
1549475341792,0.008728,-0.104553,-0.997925,0.076220,-0.228659,0.030488
1549475341799,0.009766,-0.105835,-0.999207,0.091463,-0.213415,0.030488
1549475341807,0.009949,-0.105042,-0.999084,0.076220,-0.213415,0.030488
1549475341822,0.007202,-0.104065,-0.998474,0.076220,-0.243902,0.030488
1549475341829,0.008362,-0.105896,-1.000061,0.076220,-0.213415,0.000000
1549475341837,0.008667,-0.103760,-1.000122,0.091463,-0.213415,0.015244
1549475341852,0.009155,-0.104370,-1.000427,0.091463,-0.198171,0.030488
1549475341859,0.010376,-0.105530,-0.999268,0.076220,-0.198171,0.015244
1549475341867,0.008545,-0.104980,-1.000427,0.076220,-0.213415,0.015244
1549475341882,0.009277,-0.104065,-0.995789,0.076220,-0.213415,0.030488
1549475341889,0.009094,-0.104553,-0.997864,0.076220,-0.228659,0.030488
1549475341897,0.009521,-0.103943,-1.001099,0.091463,-0.213415,0.030488
1549475341912,0.008240,-0.103516,-0.999756,0.060976,-0.198171,0.045732
1549475341919,0.007629,-0.105469,-0.997986,0.076220,-0.198171,0.030488
1549475341927,0.007935,-0.105225,-0.998535,0.076220,-0.213415,0.015244
1549475341942,0.010620,-0.105225,-0.999817,0.106707,-0.228659,0.015244
1549475341949,0.007935,-0.104309,-1.000122,0.091463,-0.213415,0.030488
1549475341957,0.007690,-0.105164,-1.000671,0.076220,-0.228659,0.060976
1549475341972,0.009949,-0.104797,-0.999390,0.091463,-0.228659,0.030488
1549475341979,0.007996,-0.104248,-0.998413,0.091463,-0.213415,0.015244
1549475341987,0.007507,-0.103760,-0.997925,0.076220,-0.198171,0.030488
1549475342002,0.007812,-0.104309,-1.001648,0.091463,-0.228659,0.045732
1549475342009,0.007874,-0.105103,-0.998108,0.076220,-0.228659,0.030488
1549475342017,0.008850,-0.104980,-0.997375,0.091463,-0.213415,0.030488
1549475342032,0.009766,-0.106018,-1.001160,0.076220,-0.228659,0.045732
1549475342039,0.010681,-0.104309,-0.998291,0.076220,-0.228659,0.015244
1549475342047,0.009644,-0.104004,-1.000671,0.091463,-0.198171,0.000000
1549475342062,0.006775,-0.104126,-1.000549,0.106707,-0.213415,0.015244
1549475342069,0.006958,-0.105286,-1.002075,0.060976,-0.228659,0.045732
1549475342077,0.009644,-0.105225,-1.001221,0.060976,-0.228659,0.030488
1549475342092,0.009399,-0.104065,-0.998474,0.091463,-0.198171,0.015244
1549475342099,0.008118,-0.105713,-0.997498,0.076220,-0.213415,0.045732
1549475342107,0.009155,-0.104126,-0.999023,0.091463,-0.243902,0.015244
1549475342122,0.008423,-0.103333,-1.001770,0.076220,-0.213415,0.015244
1549475342129,0.008484,-0.105103,-1.001892,0.060976,-0.228659,0.030488
1549475342137,0.009644,-0.104797,-0.999695,0.076220,-0.228659,0.015244
1549475342152,0.010620,-0.104431,-0.997925,0.091463,-0.213415,0.015244
1549475342159,0.009766,-0.106018,-1.001526,0.060976,-0.213415,0.045732
1549475342167,0.008179,-0.105347,-1.000244,0.076220,-0.213415,0.015244
1549475342182,0.009766,-0.104797,-0.998413,0.060976,-0.198171,0.000000
1549475342189,0.009583,-0.104980,-0.999329,0.091463,-0.198171,0.030488
1549475342197,0.009766,-0.105652,-0.999878,0.091463,-0.198171,0.030488
1549475342212,0.008667,-0.104675,-0.999756,0.091463,-0.198171,0.015244
1549475342219,0.009033,-0.103577,-0.996399,0.091463,-0.213415,0.015244
1549475342227,0.008850,-0.104858,-0.998230,0.091463,-0.228659,0.015244
1549475342242,0.009216,-0.104553,-1.000305,0.076220,-0.213415,0.030488
1549475342249,0.008850,-0.104126,-0.997314,0.091463,-0.213415,0.030488
1549475342257,0.008179,-0.105408,-0.998962,0.076220,-0.213415,0.030488
1549475342272,0.010315,-0.105469,-1.000244,0.076220,-0.228659,0.015244
1549475342279,0.008179,-0.103821,-0.999268,0.091463,-0.228659,0.015244
1549475342287,0.009033,-0.104553,-1.000610,0.091463,-0.213415,0.030488
1549475342302,0.009338,-0.105591,-1.001831,0.076220,-0.213415,0.030488
1549475342309,0.007263,-0.105347,-1.001404,0.091463,-0.213415,0.000000
1549475342317,0.008240,-0.106262,-0.997253,0.076220,-0.198171,0.015244
1549475342332,0.009216,-0.104431,-0.999939,0.091463,-0.182927,0.030488
1549475342339,0.008545,-0.104614,-0.999207,0.076220,-0.213415,0.030488
1549475342354,0.009399,-0.105713,-0.998413,0.076220,-0.213415,0.030488
1549475342362,0.009216,-0.104797,-0.998535,0.076220,-0.213415,0.045732
1549475342369,0.009460,-0.107300,-1.000305,0.076220,-0.228659,0.015244
1549475342377,0.008362,-0.104370,-1.001221,0.076220,-0.213415,0.015244
1549475342392,0.008789,-0.104126,-1.000793,0.121951,-0.213415,0.015244
1549475342399,0.007568,-0.105225,-0.997925,0.106707,-0.198171,0.030488
1549475342407,0.009521,-0.106018,-0.999634,0.106707,-0.213415,0.015244
1549475342422,0.008362,-0.104431,-0.998535,0.076220,-0.228659,0.030488
1549475342429,0.007263,-0.105225,-0.997192,0.091463,-0.198171,0.030488
1549475342437,0.010010,-0.104736,-0.996460,0.076220,-0.213415,0.030488
1549475342452,0.010254,-0.104797,-0.997314,0.060976,-0.213415,0.030488
1549475342459,0.007141,-0.104309,-0.998352,0.060976,-0.213415,0.030488
1549475342467,0.006470,-0.105164,-0.998230,0.091463,-0.228659,0.030488
1549475342482,0.009521,-0.105042,-0.998108,0.091463,-0.228659,0.015244
1549475342489,0.010437,-0.105774,-0.999817,0.091463,-0.213415,0.015244
1549475342497,0.007385,-0.106445,-0.998962,0.091463,-0.198171,0.000000
1549475342512,0.007751,-0.107056,-0.997314,0.091463,-0.198171,0.015244
1549475342519,0.011475,-0.105774,-1.001465,0.091463,-0.198171,0.045732
1549475342527,0.011292,-0.107849,-0.997375,0.076220,-0.213415,0.030488
1549475342542,0.010071,-0.107727,-0.995422,0.076220,-0.213415,0.015244
1549475342549,0.009338,-0.104980,-0.999573,0.091463,-0.213415,0.030488
1549475342563,0.007324,-0.105896,-0.999878,0.076220,-0.213415,0.030488
1549475342572,0.008057,-0.106628,-0.999756,0.091463,-0.198171,0.030488
1549475342579,0.009705,-0.106201,-0.995361,0.091463,-0.213415,0.045732
1549475342587,0.009155,-0.106262,-0.998047,0.076220,-0.213415,0.000000
1549475342602,0.010559,-0.107727,-0.999756,0.076220,-0.198171,0.030488
1549475342609,0.009583,-0.106323,-0.999878,0.091463,-0.213415,0.030488
1549475342617,0.010254,-0.105957,-0.997803,0.091463,-0.198171,0.030488
1549475342632,0.007202,-0.104553,-0.998474,0.076220,-0.228659,0.015244
1549475342639,0.009033,-0.107422,-0.998413,0.060976,-0.259146,0.000000
1549475342647,0.009583,-0.106384,-1.000549,0.076220,-0.213415,0.030488
1549475342662,0.008423,-0.106750,-0.999817,0.121951,-0.198171,0.030488
1549475342669,0.009705,-0.105652,-0.997681,0.076220,-0.198171,0.015244
1549475342677,0.010010,-0.107300,-1.000305,0.060976,-0.213415,0.015244
1549475342692,0.009155,-0.105042,-0.999878,0.091463,-0.213415,0.000000
1549475342699,0.009277,-0.105286,-0.998108,0.091463,-0.213415,0.030488
1549475342707,0.008423,-0.107117,-0.997192,0.076220,-0.198171,0.030488
1549475342722,0.009583,-0.107849,-0.997375,0.076220,-0.228659,0.030488
1549475342729,0.008972,-0.107117,-0.997253,0.091463,-0.213415,0.030488
1549475342737,0.009155,-0.107849,-0.998596,0.091463,-0.213415,0.015244
1549475342752,0.009949,-0.106934,-1.000183,0.106707,-0.213415,0.015244
1549475342759,0.010254,-0.107361,-0.998657,0.076220,-0.228659,0.015244
1549475342767,0.007935,-0.107483,-1.001282,0.076220,-0.213415,0.000000
1549475342782,0.008667,-0.105896,-0.998657,0.091463,-0.213415,0.030488
1549475342789,0.008911,-0.108521,-1.000427,0.091463,-0.213415,0.030488
1549475342797,0.008850,-0.106140,-0.999756,0.106707,-0.213415,0.030488
1549475342812,0.009705,-0.106018,-1.000793,0.106707,-0.228659,0.045732
1549475342819,0.008667,-0.105286,-0.999756,0.076220,-0.198171,0.045732
1549475342827,0.009521,-0.106812,-0.999817,0.076220,-0.182927,0.030488
1549475342842,0.009949,-0.108826,-0.998108,0.091463,-0.213415,0.045732
1549475342849,0.009583,-0.106384,-0.999573,0.076220,-0.213415,0.060976
1549475342857,0.008118,-0.106506,-1.000732,0.076220,-0.213415,0.030488
1549475342872,0.008667,-0.105347,-0.998047,0.106707,-0.228659,0.030488
1549475342879,0.009521,-0.105774,-0.996094,0.091463,-0.213415,0.030488
1549475342887,0.007629,-0.104614,-0.999146,0.060976,-0.228659,0.045732
1549475342902,0.008972,-0.104980,-1.001709,0.076220,-0.228659,0.045732
1549475342909,0.007996,-0.106567,-0.999817,0.106707,-0.213415,0.030488
1549475342917,0.010071,-0.108215,-0.999695,0.091463,-0.198171,0.000000
1549475342932,0.009460,-0.107422,-0.997986,0.106707,-0.213415,0.015244
1549475342939,0.008850,-0.105286,-0.998169,0.106707,-0.213415,0.030488
1549475342947,0.007263,-0.106934,-0.999634,0.076220,-0.213415,0.030488
1549475342962,0.008972,-0.105957,-0.999023,0.091463,-0.213415,0.015244
1549475342976,0.011230,-0.103882,-0.997864,0.091463,-0.228659,0.030488
1549475342983,0.009583,-0.106628,-0.998718,0.076220,-0.228659,0.015244
1549475342992,0.008606,-0.106445,-1.000244,0.106707,-0.198171,0.030488
1549475342999,0.008667,-0.105469,-1.001526,0.060976,-0.228659,0.030488
1549475343007,0.009094,-0.107544,-0.998474,0.076220,-0.213415,0.030488
1549475343022,0.008972,-0.106140,-0.998901,0.076220,-0.213415,0.015244
1549475343029,0.008667,-0.105774,-1.000671,0.076220,-0.182927,0.030488
1549475343037,0.011047,-0.106262,-0.998962,0.106707,-0.213415,0.030488
1549475343052,0.008911,-0.106262,-0.997559,0.106707,-0.213415,0.030488
1549475343059,0.006836,-0.107178,-0.997131,0.076220,-0.198171,0.045732
1549475343067,0.009094,-0.105896,-1.001282,0.076220,-0.228659,0.030488
1549475343083,0.008545,-0.105286,-0.998596,0.060976,-0.213415,0.030488
1549475343089,0.007812,-0.107727,-0.998596,0.091463,-0.198171,0.030488
1549475343097,0.009155,-0.107849,-0.999146,0.091463,-0.213415,0.030488
1549475343112,0.008728,-0.106323,-0.998352,0.091463,-0.228659,0.015244
1549475343119,0.008240,-0.104614,-0.998108,0.060976,-0.213415,0.030488
1549475343127,0.009460,-0.105835,-1.000916,0.060976,-0.213415,0.045732
1549475343142,0.009399,-0.107483,-0.998718,0.076220,-0.213415,0.015244
1549475343149,0.008667,-0.106934,-0.998901,0.076220,-0.198171,0.015244
1549475343157,0.006226,-0.106567,-1.000000,0.076220,-0.198171,0.015244
1549475343172,0.008911,-0.106934,-0.999329,0.091463,-0.198171,0.030488
1549475343186,0.009338,-0.104919,-0.997070,0.091463,-0.198171,0.030488
1549475343194,0.007812,-0.106262,-0.998108,0.091463,-0.228659,0.015244
1549475343202,0.008240,-0.107971,-1.002075,0.076220,-0.213415,0.015244
1549475343209,0.010254,-0.106812,-0.996826,0.091463,-0.228659,0.030488
1549475343217,0.010559,-0.106873,-0.998535,0.106707,-0.213415,0.045732
1549475343232,0.008301,-0.105835,-0.999939,0.106707,-0.213415,0.030488
1549475343239,0.008545,-0.106018,-0.998413,0.106707,-0.213415,0.015244
1549475343247,0.011841,-0.106506,-0.999023,0.091463,-0.228659,0.015244
1549475343262,0.010559,-0.104065,-0.996521,0.076220,-0.228659,0.015244
1549475343269,0.006409,-0.108093,-0.998352,0.076220,-0.213415,0.045732
1549475343277,0.009338,-0.108032,-0.999939,0.091463,-0.213415,0.015244
1549475343292,0.008789,-0.106018,-1.000366,0.091463,-0.213415,0.030488
1549475343299,0.010254,-0.105164,-1.000793,0.091463,-0.198171,0.045732
1549475343307,0.007446,-0.106506,-0.996338,0.106707,-0.213415,0.030488
1549475343322,0.009521,-0.105835,-0.999573,0.091463,-0.213415,0.030488
1549475343330,0.006958,-0.104553,-0.997559,0.091463,-0.213415,0.015244
1549475343337,0.006348,-0.106689,-0.998596,0.091463,-0.213415,0.015244
1549475343352,0.008728,-0.106873,-0.999695,0.091463,-0.198171,0.030488
1549475343359,0.008972,-0.105591,-0.999512,0.091463,-0.228659,0.030488
1549475343367,0.009399,-0.106873,-1.001770,0.091463,-0.228659,0.015244
1549475343382,0.011230,-0.106384,-0.999023,0.091463,-0.198171,0.030488
1549475343396,0.010071,-0.105103,-0.998840,0.106707,-0.213415,0.015244
1549475343403,0.009094,-0.106934,-0.998840,0.106707,-0.213415,0.030488
1549475343412,0.008118,-0.106140,-0.999634,0.076220,-0.228659,0.015244
1549475343419,0.010376,-0.107483,-0.998535,0.091463,-0.213415,0.030488
1549475343427,0.009460,-0.105164,-1.001404,0.091463,-0.198171,0.030488
1549475343442,0.006287,-0.106384,-0.999634,0.076220,-0.213415,0.030488
1549475343449,0.009155,-0.107971,-0.997498,0.091463,-0.213415,0.000000
1549475343457,0.008240,-0.105164,-0.996765,0.091463,-0.213415,0.030488
1549475343472,0.009033,-0.104919,-0.997681,0.091463,-0.213415,0.030488
1549475343479,0.009216,-0.106506,-0.999146,0.091463,-0.213415,0.030488
1549475343487,0.009583,-0.106323,-0.999817,0.091463,-0.213415,0.030488
1549475343509,0.010681,-0.105835,-0.998108,0.091463,-0.213415,0.030488
1549475343516,0.008789,-0.106384,-0.998291,0.076220,-0.243902,0.030488
1549475343524,0.009216,-0.105591,-1.002686,0.076220,-0.228659,0.015244
1549475343532,0.009583,-0.105408,-1.000061,0.076220,-0.198171,0.030488
1549475343539,0.010742,-0.105103,-0.997131,0.091463,-0.228659,0.015244
1549475343547,0.010559,-0.107544,-1.000488,0.076220,-0.228659,0.030488
1549475343562,0.010376,-0.106812,-0.998413,0.091463,-0.213415,0.045732
1549475343569,0.009277,-0.106567,-0.998840,0.091463,-0.213415,0.015244
1549475343577,0.009338,-0.108398,-0.998169,0.091463,-0.228659,0.030488
1549475343592,0.008728,-0.106628,-0.999817,0.076220,-0.243902,0.030488
1549475343599,0.009155,-0.105225,-0.997559,0.076220,-0.213415,0.015244
1549475343607,0.009338,-0.105225,-0.995972,0.076220,-0.213415,0.030488
1549475343622,0.009033,-0.106934,-1.000793,0.091463,-0.213415,0.030488
1549475343629,0.009155,-0.108093,-1.000000,0.076220,-0.198171,0.030488
1549475343637,0.008972,-0.106628,-1.000000,0.091463,-0.213415,0.015244
1549475343667,0.009155,-0.106018,-0.999634,0.091463,-0.198171,0.015244
1549475343674,0.008850,-0.105408,-0.999573,0.060976,-0.213415,0.030488
1549475343682,0.009094,-0.104187,-1.000000,0.076220,-0.213415,0.030488
1549475343689,0.010742,-0.104248,-1.001465,0.106707,-0.213415,0.030488
1549475343697,0.008545,-0.106445,-0.998047,0.091463,-0.213415,0.030488
1549475343704,0.009033,-0.108154,-0.998657,0.091463,-0.198171,0.015244
1549475343712,0.009827,-0.108215,-1.000244,0.106707,-0.213415,0.030488
1549475343719,0.010315,-0.106140,-0.999390,0.106707,-0.198171,0.045732
1549475343727,0.007935,-0.106201,-0.998291,0.106707,-0.198171,0.045732
1549475343742,0.006409,-0.106750,-0.997314,0.076220,-0.228659,0.030488
1549475343749,0.008728,-0.107117,-0.999023,0.076220,-0.213415,0.045732
1549475343757,0.010620,-0.105713,-0.999023,0.076220,-0.198171,0.030488
1549475343779,0.009094,-0.105347,-0.998535,0.076220,-0.198171,0.015244
1549475343786,0.009827,-0.106262,-0.999084,0.076220,-0.213415,0.030488
1549475343794,0.008057,-0.107178,-0.997986,0.076220,-0.243902,0.045732
1549475343802,0.010315,-0.108521,-0.999023,0.076220,-0.213415,0.045732
1549475343809,0.009460,-0.106812,-1.000061,0.060976,-0.213415,0.030488
1549475343824,0.008240,-0.106262,-0.999329,0.076220,-0.213415,0.015244
1549475343832,0.008911,-0.105225,-1.002380,0.076220,-0.213415,0.030488
1549475343839,0.009460,-0.107788,-0.998047,0.091463,-0.228659,0.015244
1549475343848,0.007690,-0.107544,-0.998901,0.076220,-0.198171,0.030488
1549475343862,0.008301,-0.106934,-0.999390,0.091463,-0.213415,0.045732
1549475343869,0.008789,-0.104736,-1.001282,0.106707,-0.198171,0.015244
1549475343877,0.009766,-0.106812,-1.002686,0.106707,-0.198171,0.015244
1549475343892,0.008484,-0.105896,-0.999939,0.106707,-0.213415,0.030488
1549475343900,0.008423,-0.106873,-0.998779,0.106707,-0.213415,0.015244
1549475343907,0.008057,-0.105103,-0.998047,0.091463,-0.213415,0.015244
1549475343922,0.010315,-0.106995,-1.000549,0.076220,-0.213415,0.030488
1549475343929,0.011047,-0.108154,-0.999268,0.076220,-0.198171,0.015244
1549475343937,0.009033,-0.105225,-0.998657,0.076220,-0.198171,0.015244
1549475343952,0.009888,-0.106689,-0.999268,0.076220,-0.213415,0.000000
1549475343959,0.007874,-0.108521,-1.000366,0.076220,-0.228659,0.015244
1549475343967,0.009521,-0.106323,-0.997498,0.091463,-0.213415,0.030488
1549475343982,0.010254,-0.107727,-0.998779,0.091463,-0.228659,0.030488
1549475343989,0.010620,-0.107727,-1.000122,0.076220,-0.213415,0.030488
1549475343997,0.009094,-0.106628,-0.997925,0.091463,-0.213415,0.030488
1549475344012,0.007385,-0.106995,-0.996826,0.091463,-0.213415,0.045732
1549475344019,0.008972,-0.106506,-0.998230,0.091463,-0.213415,0.060976
1549475344027,0.010010,-0.104919,-0.996399,0.076220,-0.228659,0.015244
1549475344042,0.008484,-0.105774,-0.999634,0.091463,-0.198171,0.030488
1549475344049,0.009277,-0.106384,-0.999084,0.091463,-0.213415,0.030488
1549475344057,0.008911,-0.107788,-0.997375,0.060976,-0.228659,0.030488
1549475344072,0.008545,-0.107544,-0.997559,0.091463,-0.213415,0.045732
1549475344079,0.008728,-0.105835,-0.998718,0.106707,-0.213415,0.030488
1549475344101,0.008728,-0.104492,-0.997986,0.091463,-0.243902,0.015244
1549475344108,0.009766,-0.106384,-0.998474,0.091463,-0.213415,0.030488
1549475344116,0.009277,-0.105957,-0.999878,0.076220,-0.228659,0.030488
1549475344123,0.007751,-0.106628,-0.997986,0.091463,-0.213415,0.030488
1549475344139,0.007385,-0.107300,-0.997437,0.106707,-0.213415,0.045732
1549475344146,0.008728,-0.106567,-0.996765,0.091463,-0.228659,0.045732
1549475344154,0.008240,-0.106018,-1.001587,0.076220,-0.228659,0.030488
1549475344162,0.008484,-0.107605,-0.999146,0.091463,-0.213415,0.015244
1549475344169,0.009338,-0.106323,-0.998840,0.091463,-0.198171,0.015244
1549475344177,0.009460,-0.106934,-0.999329,0.076220,-0.213415,0.045732
1549475344192,0.008484,-0.106934,-0.996948,0.106707,-0.228659,0.030488
1549475344200,0.007568,-0.105591,-0.996948,0.106707,-0.213415,0.015244
1549475344207,0.006042,-0.104736,-1.000244,0.076220,-0.213415,0.030488
1549475344222,0.010254,-0.106262,-1.000854,0.045732,-0.228659,0.015244
1549475344236,0.010559,-0.107178,-1.000854,0.076220,-0.213415,0.015244
1549475344244,0.008545,-0.105774,-1.000610,0.091463,-0.198171,0.030488
1549475344252,0.010254,-0.105713,-1.001038,0.106707,-0.213415,0.030488
1549475344259,0.010010,-0.106384,-0.999939,0.091463,-0.228659,0.015244
1549475344267,0.009766,-0.103210,-1.000000,0.091463,-0.213415,0.015244
1549475344282,0.009094,-0.105103,-0.997681,0.106707,-0.198171,0.030488
1549475344289,0.008911,-0.104919,-0.998596,0.076220,-0.213415,0.045732
1549475344297,0.008606,-0.104919,-0.999573,0.045732,-0.213415,0.030488
1549475344312,0.008667,-0.105103,-1.000061,0.060976,-0.213415,0.015244
1549475344319,0.008057,-0.105347,-0.999695,0.076220,-0.198171,0.015244
1549475344327,0.008789,-0.106201,-0.999939,0.060976,-0.213415,0.030488
1549475344342,0.009277,-0.104919,-0.998840,0.091463,-0.213415,0.030488
1549475344349,0.008789,-0.103149,-0.998230,0.091463,-0.213415,0.015244
1549475344357,0.010864,-0.106628,-0.997498,0.076220,-0.213415,0.030488
1549475344372,0.009766,-0.106506,-0.998840,0.091463,-0.243902,0.030488
