timestamp, accel_x, accel_y, accel_z, gyro_x, gyro_y, gyro_z
1549475628712,-0.143311,-0.635559,-0.762024,-0.091463,-0.076220,-0.228659
1549475628719,-0.141479,-0.642151,-0.763550,0.030488,-0.137195,-0.243902
1549475628734,-0.142090,-0.639099,-0.758789,0.121951,-0.152439,-0.274390
1549475628742,-0.146240,-0.641479,-0.755066,0.152439,-0.167683,-0.335366
1549475628749,-0.146423,-0.646729,-0.759766,0.152439,-0.198171,-0.411585
1549475628757,-0.149475,-0.659790,-0.762085,0.274390,-0.213415,-0.442073
1549475628772,-0.153503,-0.665344,-0.764648,0.381098,-0.304878,-0.472561
1549475628779,-0.155090,-0.659058,-0.768372,0.396341,-0.396341,-0.457317
1549475628786,-0.156250,-0.652771,-0.764465,0.320122,-0.472561,-0.426829
1549475628802,-0.152893,-0.647522,-0.756226,0.320122,-0.579268,-0.442073
1549475628809,-0.149719,-0.639587,-0.754578,0.442073,-0.640244,-0.457317
1549475628817,-0.142761,-0.645386,-0.761536,0.640244,-0.701219,-0.472561
1549475628831,-0.138733,-0.665527,-0.764099,0.914634,-0.746951,-0.457317
1549475628839,-0.141052,-0.674377,-0.764404,1.021341,-0.807927,-0.304878
1549475628847,-0.135925,-0.657043,-0.771240,0.731707,-0.640244,-0.060976
1549475628861,-0.131592,-0.634766,-0.771118,0.426829,-0.503049,0.137195
1549475628869,-0.129822,-0.635986,-0.763855,0.503049,-0.548781,0.152439
1549475628877,-0.134338,-0.646301,-0.758118,0.823171,-0.548781,0.198171
1549475628891,-0.139038,-0.655029,-0.758423,0.990854,-0.472561,0.213415
1549475628900,-0.147827,-0.661987,-0.762939,0.884146,-0.365854,0.182927
1549475628907,-0.150696,-0.667358,-0.762146,0.746951,-0.304878,0.274390
1549475628922,-0.156799,-0.664490,-0.765259,0.609756,-0.213415,0.365854
1549475628936,-0.160645,-0.660034,-0.761597,0.503049,-0.259146,0.457317
1549475628937,-0.163452,-0.662048,-0.755127,0.518293,-0.335366,0.472561
1549475628951,-0.157349,-0.660583,-0.748413,0.625000,-0.426829,0.426829
1549475628959,-0.153198,-0.661560,-0.742432,0.701219,-0.487805,0.381098
1549475628967,-0.149292,-0.664429,-0.746277,0.594512,-0.487805,0.289634
1549475628981,-0.148071,-0.666321,-0.755798,0.487805,-0.442073,0.228659
1549475628989,-0.149780,-0.666260,-0.760864,0.320122,-0.411585,0.182927
1549475628997,-0.148010,-0.663696,-0.766113,0.228659,-0.335366,0.167683
1549475629011,-0.147156,-0.663696,-0.767456,0.243902,-0.320122,0.167683
1549475629019,-0.145935,-0.658875,-0.760498,0.274390,-0.335366,0.182927
1549475629027,-0.142029,-0.651794,-0.751953,0.228659,-0.289634,0.121951
1549475629041,-0.140564,-0.652100,-0.751221,0.060976,-0.289634,0.000000
1549475629049,-0.141357,-0.660400,-0.756287,-0.060976,-0.289634,-0.106707
1549475629057,-0.142029,-0.667725,-0.757751,-0.030488,-0.350610,-0.121951
1549475629071,-0.144531,-0.664795,-0.759094,-0.045732,-0.426829,-0.091463
1549475629079,-0.147644,-0.658875,-0.758728,-0.091463,-0.487805,-0.060976
1549475629087,-0.151001,-0.656738,-0.756531,-0.121951,-0.503049,-0.030488
1549475629101,-0.148560,-0.653076,-0.750916,-0.030488,-0.533537,-0.015244
1549475629110,-0.151245,-0.652954,-0.748047,0.106707,-0.548781,0.000000
1549475629117,-0.154358,-0.659241,-0.756348,0.106707,-0.518293,0.015244
1549475629131,-0.154785,-0.660767,-0.759827,0.045732,-0.426829,0.015244
1549475629139,-0.155457,-0.660217,-0.761597,0.015244,-0.365854,0.060976
1549475629147,-0.158203,-0.661865,-0.765564,0.091463,-0.335366,0.030488
1549475629161,-0.157593,-0.660767,-0.762573,0.198171,-0.350610,0.030488
1549475629169,-0.160583,-0.660889,-0.759216,0.335366,-0.274390,-0.015244
1549475629177,-0.159485,-0.655151,-0.758362,0.365854,-0.213415,-0.091463
1549475629191,-0.160156,-0.653992,-0.757141,0.289634,-0.106707,-0.106707
1549475629199,-0.155518,-0.656677,-0.758972,0.182927,-0.015244,-0.060976
1549475629207,-0.150879,-0.656006,-0.762573,0.152439,0.015244,0.045732
1549475629221,-0.149353,-0.655945,-0.764587,0.091463,0.015244,0.121951
1549475629229,-0.149353,-0.654053,-0.761963,-0.015244,0.000000,0.198171
1549475629237,-0.147400,-0.656982,-0.757935,0.030488,-0.060976,0.289634
1549475629251,-0.144287,-0.660522,-0.751343,0.121951,-0.152439,0.243902
1549475629259,-0.144409,-0.664551,-0.748413,0.198171,-0.198171,0.182927
1549475629267,-0.146729,-0.664734,-0.754578,0.198171,-0.213415,0.121951
1549475629281,-0.149170,-0.668701,-0.756714,0.137195,-0.182927,0.000000
1549475629289,-0.149109,-0.668213,-0.758423,0.045732,-0.167683,-0.076220
1549475629297,-0.149170,-0.662476,-0.759155,0.000000,-0.167683,-0.137195
1549475629304,-0.147705,-0.659729,-0.759460,-0.106707,-0.152439,-0.259146
1549475629319,-0.146118,-0.657715,-0.760315,-0.182927,-0.152439,-0.335366
1549475629326,-0.143494,-0.656433,-0.759155,-0.137195,-0.167683,-0.365854
1549475629334,-0.142090,-0.655273,-0.757385,-0.137195,-0.152439,-0.365854
1549475629349,-0.143433,-0.653259,-0.759644,-0.137195,-0.167683,-0.365854
1549475629357,-0.144470,-0.654907,-0.760254,-0.076220,-0.182927,-0.289634
1549475629364,-0.145081,-0.656006,-0.760193,-0.045732,-0.198171,-0.259146
1549475629379,-0.148193,-0.660034,-0.759888,-0.045732,-0.167683,-0.304878
1549475629386,-0.148865,-0.663025,-0.761536,-0.091463,-0.167683,-0.320122
1549475629394,-0.150452,-0.665649,-0.761108,-0.213415,-0.137195,-0.396341
1549475629409,-0.148621,-0.660583,-0.762024,-0.411585,-0.076220,-0.472561
1549475629416,-0.150879,-0.658875,-0.758667,-0.548781,-0.060976,-0.533537
1549475629424,-0.153137,-0.653992,-0.752930,-0.472561,-0.060976,-0.564024
1549475629439,-0.153625,-0.654785,-0.754395,-0.243902,-0.091463,-0.503049
1549475629447,-0.157104,-0.661377,-0.755859,-0.015244,-0.106707,-0.442073
1549475629455,-0.156982,-0.659485,-0.760315,0.015244,-0.045732,-0.396341
1549475629469,-0.155334,-0.653931,-0.762207,-0.045732,0.060976,-0.365854
1549475629477,-0.151062,-0.659302,-0.760986,-0.076220,0.137195,-0.335366
1549475629492,-0.148560,-0.654724,-0.765991,-0.015244,0.213415,-0.274390
1549475629499,-0.143921,-0.650024,-0.769409,-0.015244,0.243902,-0.198171
1549475629507,-0.139282,-0.650452,-0.765808,-0.045732,0.274390,-0.121951
1549475629514,-0.133911,-0.649353,-0.762695,-0.106707,0.228659,-0.030488
1549475629529,-0.132629,-0.645325,-0.757446,-0.243902,0.213415,0.000000
1549475629536,-0.133606,-0.648132,-0.753235,-0.274390,0.137195,0.000000
1549475629551,-0.133301,-0.653564,-0.749756,-0.228659,0.000000,-0.030488
1549475629559,-0.134216,-0.656006,-0.749146,-0.076220,-0.152439,-0.015244
1549475629567,-0.140320,-0.659912,-0.749329,0.045732,-0.335366,0.000000
1549475629574,-0.147949,-0.666016,-0.751831,0.121951,-0.487805,0.030488
1549475629589,-0.153076,-0.665466,-0.754578,0.182927,-0.625000,0.045732
1549475629597,-0.154358,-0.660095,-0.759216,0.167683,-0.701219,0.091463
1549475629604,-0.153687,-0.657227,-0.761536,0.076220,-0.731707,0.121951
1549475629619,-0.149658,-0.652222,-0.760620,0.030488,-0.762195,0.121951
1549475629627,-0.146851,-0.653076,-0.763916,0.121951,-0.762195,0.167683
1549475629634,-0.143616,-0.652283,-0.766663,0.213415,-0.731707,0.167683
1549475629649,-0.142212,-0.650818,-0.766357,0.213415,-0.701219,0.182927
1549475629657,-0.141602,-0.652161,-0.764465,0.106707,-0.609756,0.228659
1549475629664,-0.139771,-0.652588,-0.762207,0.030488,-0.564024,0.289634
1549475629679,-0.139648,-0.654236,-0.760620,-0.015244,-0.518293,0.335366
1549475629693,-0.145508,-0.652344,-0.757507,-0.076220,-0.426829,0.350610
1549475629695,-0.150574,-0.651855,-0.754883,0.000000,-0.396341,0.335366
1549475629709,-0.157043,-0.654846,-0.754639,0.182927,-0.426829,0.320122
1549475629717,-0.160400,-0.660461,-0.749390,0.426829,-0.487805,0.304878
1549475629724,-0.160400,-0.664551,-0.754211,0.609756,-0.472561,0.335366
1549475629739,-0.158691,-0.664185,-0.756958,0.655488,-0.442073,0.396341
1549475629747,-0.154236,-0.662231,-0.759338,0.533537,-0.426829,0.442073
1549475629761,-0.151611,-0.655396,-0.763306,0.442073,-0.381098,0.457317
1549475629769,-0.149414,-0.653442,-0.767212,0.381098,-0.365854,0.503049
1549475629776,-0.150696,-0.652161,-0.766357,0.259146,-0.365854,0.457317
1549475629784,-0.149414,-0.652222,-0.766357,0.167683,-0.335366,0.426829
1549475629800,-0.147156,-0.653564,-0.762756,0.152439,-0.335366,0.426829
1549475629807,-0.143677,-0.655579,-0.760437,0.121951,-0.365854,0.396341
1549475629814,-0.143066,-0.658936,-0.758789,0.076220,-0.381098,0.350610
1549475629829,-0.145325,-0.659973,-0.755127,0.030488,-0.411585,0.320122
1549475629836,-0.146667,-0.657593,-0.755066,0.015244,-0.426829,0.259146
1549475629844,-0.148743,-0.660767,-0.754395,0.076220,-0.426829,0.137195
1549475629859,-0.153076,-0.661621,-0.754150,0.243902,-0.457317,0.106707
1549475629866,-0.155151,-0.662476,-0.754822,0.320122,-0.487805,0.030488
1549475629874,-0.154846,-0.664551,-0.756714,0.274390,-0.411585,-0.015244
1549475629889,-0.153870,-0.663025,-0.761597,0.167683,-0.335366,0.015244
1549475629897,-0.154785,-0.660095,-0.770630,0.060976,-0.259146,-0.015244
1549475629904,-0.153320,-0.652954,-0.769226,-0.030488,-0.198171,-0.015244
1549475629919,-0.148743,-0.646912,-0.763184,-0.015244,-0.152439,0.030488
1549475629926,-0.150757,-0.652832,-0.760010,0.076220,-0.137195,0.015244
1549475629934,-0.145874,-0.654236,-0.757202,0.213415,-0.152439,0.030488
1549475629949,-0.144348,-0.653137,-0.752197,0.259146,-0.213415,0.076220
1549475629956,-0.146729,-0.654663,-0.751221,0.259146,-0.259146,0.091463
1549475629964,-0.150024,-0.655029,-0.751953,0.320122,-0.274390,0.152439
1549475629979,-0.152527,-0.655579,-0.754944,0.426829,-0.320122,0.228659
1549475629987,-0.154541,-0.653809,-0.754639,0.533537,-0.381098,0.304878
1549475630001,-0.156921,-0.652649,-0.757629,0.625000,-0.426829,0.411585
1549475630009,-0.159424,-0.653809,-0.758667,0.685976,-0.442073,0.518293
1549475630017,-0.159302,-0.656372,-0.759155,0.746951,-0.487805,0.594512
1549475630024,-0.160828,-0.659546,-0.759644,0.792683,-0.457317,0.640244
1549475630039,-0.162415,-0.664307,-0.761719,0.807927,-0.396341,0.655488
1549475630047,-0.160706,-0.667725,-0.764648,0.746951,-0.304878,0.640244
1549475630054,-0.160400,-0.669250,-0.763367,0.640244,-0.243902,0.609756
1549475630069,-0.163330,-0.666809,-0.759277,0.579268,-0.213415,0.579268
1549475630077,-0.155273,-0.660156,-0.750061,0.487805,-0.182927,0.503049
1549475630084,-0.151001,-0.654175,-0.745544,0.472561,-0.137195,0.411585
1549475630106,-0.151733,-0.658325,-0.742432,0.609756,-0.121951,0.304878
1549475630113,-0.156372,-0.664856,-0.748108,0.823171,-0.106707,0.274390
1549475630115,-0.161682,-0.669617,-0.755066,0.868902,-0.076220,0.274390
1549475630129,-0.161133,-0.666382,-0.756531,0.625000,-0.076220,0.198171
1549475630137,-0.158447,-0.660156,-0.751770,0.335366,-0.015244,0.106707
1549475630144,-0.154419,-0.660706,-0.750793,0.228659,-0.030488,0.091463
1549475630159,-0.151550,-0.666687,-0.751343,0.350610,-0.152439,0.091463
1549475630173,-0.148132,-0.670105,-0.751587,0.381098,-0.243902,0.106707
1549475630175,-0.144836,-0.667786,-0.753784,0.137195,-0.274390,0.121951
1549475630189,-0.145325,-0.662598,-0.753540,-0.228659,-0.320122,0.121951
1549475630197,-0.146606,-0.658203,-0.750854,-0.411585,-0.381098,0.076220
1549475630204,-0.151001,-0.658936,-0.747803,-0.274390,-0.472561,0.000000
1549475630219,-0.154785,-0.663330,-0.746948,-0.060976,-0.609756,-0.091463
1549475630226,-0.161804,-0.667969,-0.747986,0.106707,-0.670732,-0.167683
1549475630234,-0.166199,-0.666809,-0.752625,0.076220,-0.640244,-0.167683
1549475630249,-0.170410,-0.670654,-0.755066,-0.091463,-0.594512,-0.121951
1549475630257,-0.171814,-0.668579,-0.759460,-0.274390,-0.503049,-0.137195
1549475630264,-0.171509,-0.666077,-0.763672,-0.457317,-0.457317,-0.167683
1549475630279,-0.165222,-0.663696,-0.759338,-0.533537,-0.411585,-0.198171
1549475630287,-0.160339,-0.660706,-0.760315,-0.487805,-0.365854,-0.259146
1549475630294,-0.155579,-0.657898,-0.762390,-0.442073,-0.289634,-0.304878
1549475630309,-0.148315,-0.654236,-0.764465,-0.442073,-0.243902,-0.365854
1549475630317,-0.141724,-0.651978,-0.757446,-0.533537,-0.213415,-0.365854
1549475630324,-0.141418,-0.647217,-0.755554,-0.594512,-0.137195,-0.365854
1549475630339,-0.144897,-0.648987,-0.754578,-0.548781,-0.060976,-0.381098
1549475630347,-0.146973,-0.657043,-0.756165,-0.335366,-0.121951,-0.365854
1549475630354,-0.155823,-0.658936,-0.752441,-0.121951,-0.182927,-0.365854
1549475630369,-0.161804,-0.657837,-0.750671,-0.076220,-0.167683,-0.335366
1549475630377,-0.165222,-0.659363,-0.755310,-0.137195,-0.106707,-0.320122
1549475630384,-0.166199,-0.661926,-0.756714,-0.121951,-0.106707,-0.274390
1549475630399,-0.165894,-0.660706,-0.760010,-0.030488,-0.106707,-0.198171
1549475630414,-0.164307,-0.657410,-0.759888,0.015244,-0.076220,-0.106707
1549475630421,-0.158081,-0.649963,-0.758850,-0.045732,-0.015244,-0.045732
1549475630429,-0.154175,-0.652161,-0.761047,-0.060976,0.030488,0.030488
1549475630437,-0.151794,-0.654968,-0.759705,-0.030488,0.076220,0.060976
1549475630444,-0.148071,-0.656433,-0.758484,0.060976,0.121951,0.091463
1549475630459,-0.144470,-0.657349,-0.755310,0.091463,0.121951,0.121951
1549475630467,-0.140564,-0.660522,-0.751160,0.167683,0.137195,0.091463
1549475630474,-0.135559,-0.661926,-0.751526,0.198171,0.121951,0.106707
1549475630489,-0.137756,-0.662048,-0.754211,0.259146,0.076220,0.091463
1549475630497,-0.142578,-0.659607,-0.752869,0.289634,0.030488,0.030488
1549475630504,-0.151245,-0.655334,-0.755005,0.350610,0.000000,-0.030488
1549475630519,-0.157898,-0.659058,-0.758118,0.503049,-0.045732,-0.060976
1549475630527,-0.165710,-0.666565,-0.759827,0.640244,-0.091463,-0.060976
1549475630534,-0.167236,-0.664185,-0.759705,0.548781,-0.060976,-0.030488
1549475630549,-0.165710,-0.660217,-0.760376,0.304878,0.045732,0.030488
1549475630557,-0.161926,-0.655396,-0.760010,0.137195,0.167683,0.076220
1549475630564,-0.156738,-0.655762,-0.756042,0.121951,0.121951,0.137195
1549475630579,-0.147644,-0.657776,-0.751221,0.106707,0.076220,0.121951
1549475630587,-0.138794,-0.661072,-0.749817,-0.030488,0.030488,0.060976
1549475630594,-0.134338,-0.661438,-0.751770,-0.213415,-0.030488,0.030488
1549475630609,-0.135193,-0.661438,-0.757446,-0.335366,-0.121951,-0.015244
1549475630617,-0.141052,-0.661011,-0.756348,-0.335366,-0.274390,-0.076220
1549475630624,-0.146790,-0.661194,-0.749695,-0.152439,-0.487805,-0.198171
1549475630639,-0.154480,-0.661133,-0.746765,0.091463,-0.670732,-0.243902
1549475630647,-0.161560,-0.666138,-0.748047,0.259146,-0.838415,-0.304878
1549475630654,-0.171387,-0.666870,-0.754700,0.289634,-0.868902,-0.320122
1549475630669,-0.169983,-0.658386,-0.765625,0.091463,-0.762195,-0.259146
1549475630677,-0.162903,-0.661255,-0.766846,-0.259146,-0.670732,-0.213415
1549475630684,-0.157593,-0.663025,-0.762329,-0.472561,-0.579268,-0.182927
1549475630699,-0.152222,-0.657349,-0.755737,-0.533537,-0.533537,-0.045732
1549475630707,-0.151245,-0.647583,-0.762024,-0.579268,-0.457317,-0.060976
1549475630714,-0.147461,-0.644836,-0.761963,-0.518293,-0.457317,-0.121951
1549475630729,-0.147339,-0.650208,-0.754028,-0.274390,-0.472561,-0.167683
1549475630737,-0.148193,-0.658020,-0.749939,-0.015244,-0.487805,-0.182927
1549475630744,-0.151306,-0.662231,-0.751587,0.030488,-0.457317,-0.152439
1549475630759,-0.154663,-0.660828,-0.755554,-0.091463,-0.396341,-0.152439
1549475630767,-0.157288,-0.658508,-0.756531,-0.167683,-0.350610,-0.121951
1549475630774,-0.160400,-0.655151,-0.760498,-0.182927,-0.289634,-0.076220
1549475630789,-0.164612,-0.652893,-0.760254,-0.152439,-0.213415,-0.030488
1549475630797,-0.166260,-0.652344,-0.758484,-0.076220,-0.213415,-0.030488
1549475630804,-0.160278,-0.652649,-0.759338,0.091463,-0.213415,0.015244
1549475630819,-0.156006,-0.655579,-0.758179,0.259146,-0.182927,0.121951
1549475630827,-0.150269,-0.655823,-0.754700,0.289634,-0.198171,0.243902
1549475630834,-0.148499,-0.655823,-0.757385,0.243902,-0.152439,0.350610
1549475630849,-0.145569,-0.654724,-0.760559,0.121951,-0.121951,0.426829
1549475630856,-0.146790,-0.653320,-0.760925,0.121951,-0.137195,0.472561
1549475630864,-0.147034,-0.654175,-0.760193,0.152439,-0.182927,0.503049
1549475630879,-0.147644,-0.655884,-0.757568,0.213415,-0.213415,0.487805
1549475630887,-0.151367,-0.657349,-0.756165,0.243902,-0.198171,0.411585
1549475630901,-0.155151,-0.661438,-0.754456,0.274390,-0.228659,0.350610
1549475630909,-0.156616,-0.660950,-0.757080,0.350610,-0.228659,0.350610
1549475630917,-0.156189,-0.661438,-0.756104,0.381098,-0.274390,0.350610
1549475630924,-0.158020,-0.659302,-0.757202,0.350610,-0.289634,0.365854
1549475630939,-0.158142,-0.656555,-0.756104,0.304878,-0.304878,0.381098
1549475630947,-0.151611,-0.658264,-0.756531,0.274390,-0.304878,0.335366
1549475630954,-0.150452,-0.661316,-0.756409,0.259146,-0.289634,0.289634
1549475630969,-0.149841,-0.665283,-0.756958,0.259146,-0.289634,0.259146
1549475630977,-0.149170,-0.663635,-0.759705,0.182927,-0.289634,0.213415
1549475630984,-0.150635,-0.660828,-0.759399,0.137195,-0.304878,0.167683
1549475631000,-0.149963,-0.657715,-0.757202,0.091463,-0.320122,0.121951
1549475631007,-0.151794,-0.655884,-0.753845,0.091463,-0.365854,0.030488
1549475631014,-0.154846,-0.659363,-0.753357,0.137195,-0.442073,-0.045732
1549475631029,-0.157471,-0.661621,-0.752563,0.137195,-0.442073,-0.091463
1549475631037,-0.158936,-0.663330,-0.756470,0.121951,-0.396341,-0.121951
1549475631044,-0.161438,-0.659546,-0.755615,0.000000,-0.426829,-0.106707
1549475631059,-0.163147,-0.655090,-0.756409,-0.060976,-0.396341,-0.091463
1549475631067,-0.160889,-0.657104,-0.757812,0.076220,-0.396341,-0.060976
1549475631074,-0.162537,-0.657959,-0.756348,0.121951,-0.396341,-0.060976
1549475631089,-0.161743,-0.656433,-0.757202,0.121951,-0.365854,-0.045732
1549475631096,-0.164551,-0.658569,-0.758484,0.060976,-0.259146,-0.060976
1549475631111,-0.161621,-0.656982,-0.759216,0.030488,-0.137195,-0.060976
1549475631119,-0.161316,-0.653625,-0.761658,-0.015244,-0.106707,-0.045732
1549475631127,-0.158691,-0.652649,-0.760254,-0.030488,-0.091463,-0.060976
1549475631134,-0.157715,-0.655151,-0.757507,0.000000,-0.076220,-0.045732
1549475631149,-0.156677,-0.658813,-0.757446,0.060976,-0.091463,0.015244
1549475631157,-0.155212,-0.660522,-0.758118,0.106707,-0.106707,0.045732
1549475631164,-0.155334,-0.658447,-0.754456,0.091463,-0.091463,0.076220
1549475631179,-0.155090,-0.651917,-0.752747,0.045732,-0.076220,0.106707
1549475631187,-0.156982,-0.656982,-0.756592,0.030488,-0.076220,0.060976
1549475631194,-0.159302,-0.661804,-0.757690,0.091463,-0.106707,0.030488
1549475631209,-0.156433,-0.664612,-0.756287,0.152439,-0.152439,0.045732
1549475631217,-0.155396,-0.663208,-0.755188,0.121951,-0.152439,-0.015244
1549475631224,-0.154480,-0.662964,-0.756287,0.060976,-0.152439,-0.030488
1549475631254,-0.153198,-0.656982,-0.755615,0.030488,-0.152439,-0.045732
1549475631261,-0.151428,-0.656982,-0.755371,0.030488,-0.198171,-0.060976
1549475631262,-0.153076,-0.655151,-0.755432,0.015244,-0.243902,-0.106707
1549475631269,-0.151917,-0.654785,-0.757568,0.000000,-0.243902,-0.137195
1549475631277,-0.149353,-0.658936,-0.760742,0.000000,-0.274390,-0.137195
1549475631284,-0.149536,-0.659363,-0.759521,-0.015244,-0.304878,-0.076220
1549475631299,-0.150208,-0.654114,-0.757202,-0.030488,-0.259146,-0.030488
1549475631307,-0.152710,-0.650452,-0.755798,-0.030488,-0.259146,-0.015244
1549475631314,-0.154175,-0.653442,-0.755676,0.045732,-0.274390,0.000000
1549475631329,-0.154541,-0.657043,-0.754089,0.213415,-0.304878,0.015244
1549475631337,-0.154602,-0.660095,-0.752625,0.274390,-0.304878,0.030488
1549475631344,-0.156738,-0.661438,-0.755188,0.259146,-0.304878,0.030488
1549475631359,-0.156860,-0.661316,-0.759399,0.182927,-0.243902,0.030488
1549475631367,-0.158813,-0.659119,-0.763000,0.167683,-0.243902,0.045732
1549475631374,-0.158020,-0.657837,-0.759399,0.182927,-0.274390,0.030488
1549475631389,-0.157410,-0.656799,-0.758850,0.152439,-0.289634,0.045732
1549475631397,-0.155701,-0.656006,-0.759399,0.152439,-0.304878,0.015244
1549475631404,-0.156921,-0.658325,-0.757263,0.243902,-0.274390,0.000000
1549475631419,-0.157532,-0.662354,-0.756775,0.259146,-0.243902,0.000000
1549475631427,-0.158020,-0.662903,-0.758606,0.167683,-0.182927,0.000000
1549475631434,-0.156189,-0.657166,-0.761719,0.015244,-0.121951,0.045732
1549475631449,-0.155823,-0.658325,-0.761230,-0.137195,-0.091463,0.015244
1549475631457,-0.155884,-0.655945,-0.756531,-0.167683,-0.060976,0.000000
1549475631464,-0.156677,-0.656128,-0.753845,-0.106707,-0.121951,-0.030488
1549475631479,-0.155396,-0.658020,-0.751587,-0.045732,-0.152439,-0.091463
1549475631501,-0.155518,-0.659729,-0.754395,-0.060976,-0.167683,-0.091463
1549475631509,-0.155701,-0.660278,-0.752136,-0.045732,-0.198171,-0.076220
1549475631516,-0.155457,-0.655212,-0.755188,-0.076220,-0.198171,-0.076220
1549475631524,-0.153015,-0.656250,-0.756226,-0.091463,-0.198171,-0.076220
1549475631526,-0.151428,-0.658936,-0.758911,-0.091463,-0.213415,-0.045732
1549475631540,-0.151550,-0.656921,-0.759583,-0.045732,-0.228659,-0.060976
1549475631547,-0.152039,-0.655518,-0.758667,0.000000,-0.243902,-0.076220
1549475631555,-0.152344,-0.657715,-0.760071,0.030488,-0.289634,-0.076220
1549475631570,-0.153992,-0.656555,-0.759888,0.000000,-0.259146,-0.076220
1549475631577,-0.155396,-0.653442,-0.759033,-0.045732,-0.259146,-0.060976
1549475631585,-0.153198,-0.655334,-0.757629,-0.045732,-0.243902,-0.045732
1549475631607,-0.154968,-0.656128,-0.755737,-0.030488,-0.259146,-0.030488
1549475631614,-0.153687,-0.658997,-0.758240,-0.030488,-0.259146,-0.015244
1549475631615,-0.154846,-0.659790,-0.756714,-0.015244,-0.259146,-0.015244
1549475631629,-0.156006,-0.657104,-0.757568,0.060976,-0.228659,0.015244
1549475631637,-0.157471,-0.655884,-0.758911,0.106707,-0.274390,0.015244
1549475631644,-0.158325,-0.656555,-0.759277,0.137195,-0.274390,0.000000
1549475631659,-0.159363,-0.654602,-0.756042,0.167683,-0.259146,0.045732
1549475631667,-0.159363,-0.654114,-0.757141,0.198171,-0.259146,0.076220
1549475631674,-0.158752,-0.655334,-0.761230,0.121951,-0.228659,0.091463
1549475631689,-0.155579,-0.655884,-0.761353,0.076220,-0.198171,0.091463
1549475631697,-0.151550,-0.656189,-0.760925,0.076220,-0.137195,0.076220
1549475631704,-0.153198,-0.655334,-0.760010,0.091463,-0.137195,0.121951
1549475631719,-0.153076,-0.657898,-0.758789,0.167683,-0.167683,0.106707
1549475631727,-0.153870,-0.656982,-0.752808,0.167683,-0.198171,0.152439
1549475631734,-0.151611,-0.650452,-0.751404,0.121951,-0.198171,0.213415
1549475631749,-0.151367,-0.653564,-0.753479,0.121951,-0.213415,0.198171
1549475631757,-0.154236,-0.657776,-0.755432,0.228659,-0.289634,0.198171
1549475631764,-0.156677,-0.658447,-0.758118,0.259146,-0.320122,0.228659
1549475631779,-0.155945,-0.657654,-0.762512,0.198171,-0.304878,0.213415
1549475631787,-0.156921,-0.657654,-0.763306,0.182927,-0.289634,0.167683
1549475631794,-0.154968,-0.656860,-0.756775,0.213415,-0.335366,0.182927
1549475631809,-0.155029,-0.654053,-0.751831,0.228659,-0.365854,0.137195
1549475631817,-0.156433,-0.655273,-0.753723,0.167683,-0.335366,0.137195
1549475631831,-0.154724,-0.657349,-0.757141,0.152439,-0.350610,0.137195
1549475631839,-0.156128,-0.658691,-0.758545,0.121951,-0.350610,0.091463
1549475631847,-0.157410,-0.658936,-0.761353,0.076220,-0.304878,0.121951
1549475631854,-0.157837,-0.657837,-0.762817,0.060976,-0.320122,0.121951
1549475631869,-0.157837,-0.652527,-0.760071,0.106707,-0.320122,0.137195
1549475631877,-0.156128,-0.650330,-0.755981,0.137195,-0.335366,0.106707
1549475631884,-0.154602,-0.653076,-0.752502,0.167683,-0.365854,0.045732
1549475631899,-0.154663,-0.655396,-0.752380,0.213415,-0.365854,0.030488
1549475631906,-0.158325,-0.657776,-0.754639,0.198171,-0.335366,0.015244
1549475631914,-0.160767,-0.658020,-0.758484,0.167683,-0.304878,0.060976
1549475631929,-0.159058,-0.657288,-0.761047,0.198171,-0.274390,0.121951
1549475631937,-0.159607,-0.656494,-0.759766,0.213415,-0.289634,0.167683
1549475631944,-0.159424,-0.654114,-0.758057,0.274390,-0.365854,0.167683
1549475631959,-0.157898,-0.652710,-0.753296,0.304878,-0.350610,0.182927
1549475631967,-0.155823,-0.655151,-0.754517,0.228659,-0.304878,0.137195
1549475631974,-0.158508,-0.657593,-0.758240,0.182927,-0.259146,0.137195
1549475631989,-0.156860,-0.659302,-0.760193,0.182927,-0.243902,0.121951
1549475631997,-0.156738,-0.659424,-0.758972,0.182927,-0.213415,0.137195
1549475632004,-0.158020,-0.657898,-0.758911,0.228659,-0.213415,0.137195
1549475632019,-0.156921,-0.653503,-0.757935,0.320122,-0.243902,0.106707
1549475632026,-0.158386,-0.654114,-0.752014,0.396341,-0.243902,0.106707
1549475632034,-0.156799,-0.655640,-0.752869,0.365854,-0.198171,0.091463
1549475632049,-0.155579,-0.655579,-0.756165,0.289634,-0.213415,0.106707
1549475632057,-0.156677,-0.658569,-0.760925,0.228659,-0.213415,0.137195
1549475632064,-0.157593,-0.659851,-0.761597,0.198171,-0.198171,0.121951
1549475632079,-0.161865,-0.658813,-0.759277,0.213415,-0.228659,0.121951
1549475632087,-0.160339,-0.658875,-0.753479,0.228659,-0.259146,0.121951
1549475632094,-0.160706,-0.658264,-0.750671,0.289634,-0.259146,0.091463
1549475632109,-0.158630,-0.658264,-0.752075,0.320122,-0.259146,0.076220
1549475632117,-0.159058,-0.660950,-0.753052,0.259146,-0.182927,0.091463
1549475632124,-0.156616,-0.658203,-0.757935,0.182927,-0.198171,0.121951
1549475632139,-0.154175,-0.654419,-0.759155,0.121951,-0.213415,0.121951
1549475632154,-0.155090,-0.655212,-0.756409,0.121951,-0.243902,0.137195
1549475632161,-0.154541,-0.656494,-0.755066,0.152439,-0.274390,0.091463
1549475632169,-0.155640,-0.657959,-0.752930,0.198171,-0.289634,0.060976
1549475632177,-0.158203,-0.659973,-0.752686,0.243902,-0.289634,0.030488
1549475632184,-0.160583,-0.662476,-0.751526,0.152439,-0.243902,0.000000
1549475632199,-0.161621,-0.662109,-0.757446,0.091463,-0.213415,-0.015244
1549475632207,-0.162292,-0.658936,-0.759949,0.030488,-0.182927,-0.015244
1549475632214,-0.160156,-0.654907,-0.756958,0.015244,-0.182927,-0.030488
1549475632229,-0.156250,-0.656860,-0.755676,0.060976,-0.198171,-0.045732
1549475632237,-0.157104,-0.656311,-0.753540,0.091463,-0.228659,-0.091463
1549475632244,-0.157043,-0.656982,-0.752686,0.091463,-0.243902,-0.137195
1549475632259,-0.156738,-0.658630,-0.756348,0.015244,-0.228659,-0.137195
1549475632267,-0.157532,-0.656372,-0.757812,0.000000,-0.182927,-0.121951
1549475632274,-0.157959,-0.655151,-0.757507,0.015244,-0.137195,-0.106707
1549475632289,-0.156311,-0.655273,-0.760498,0.030488,-0.167683,-0.091463
1549475632297,-0.157837,-0.658081,-0.758911,0.030488,-0.182927,-0.106707
1549475632304,-0.159790,-0.657104,-0.756104,0.091463,-0.182927,-0.106707
1549475632319,-0.156738,-0.658936,-0.754639,0.060976,-0.182927,-0.091463
1549475632327,-0.157837,-0.655701,-0.753540,0.106707,-0.137195,-0.076220
1549475632334,-0.156738,-0.656128,-0.753784,0.091463,-0.106707,-0.060976
1549475632356,-0.156738,-0.656006,-0.756409,0.060976,-0.076220,-0.030488
1549475632357,-0.157898,-0.652771,-0.757874,0.076220,-0.106707,-0.030488
1549475632364,-0.157104,-0.655029,-0.757080,0.167683,-0.152439,-0.015244
1549475632379,-0.158081,-0.658997,-0.753845,0.243902,-0.198171,-0.015244
1549475632387,-0.157227,-0.659851,-0.754883,0.228659,-0.213415,0.015244
1549475632394,-0.156677,-0.658447,-0.751953,0.213415,-0.213415,0.030488
1549475632409,-0.156494,-0.656494,-0.750610,0.152439,-0.213415,0.060976
1549475632417,-0.154114,-0.655029,-0.755554,0.121951,-0.198171,0.076220
1549475632424,-0.155334,-0.659912,-0.756531,0.152439,-0.213415,0.045732
1549475632439,-0.157593,-0.662048,-0.756226,0.106707,-0.228659,0.045732
1549475632447,-0.157532,-0.658447,-0.754089,0.060976,-0.182927,0.045732
1549475632462,-0.156189,-0.655884,-0.756897,0.030488,-0.213415,0.030488
1549475632469,-0.158142,-0.656616,-0.755554,0.045732,-0.243902,0.015244
1549475632477,-0.156494,-0.655090,-0.754578,0.060976,-0.243902,0.060976
1549475632484,-0.154602,-0.657410,-0.753601,0.137195,-0.243902,0.015244
1549475632499,-0.154297,-0.657166,-0.755066,0.121951,-0.243902,0.015244
1549475632507,-0.154541,-0.656311,-0.758789,0.091463,-0.228659,0.076220
1549475632514,-0.155273,-0.656799,-0.758667,0.091463,-0.243902,0.076220
1549475632529,-0.157166,-0.656921,-0.756470,0.106707,-0.274390,0.076220
1549475632537,-0.158508,-0.657532,-0.753845,0.198171,-0.259146,0.091463
1549475632544,-0.157837,-0.657288,-0.752563,0.243902,-0.274390,0.121951
1549475632566,-0.156250,-0.656616,-0.755615,0.213415,-0.289634,0.106707
1549475632573,-0.155457,-0.662048,-0.755493,0.167683,-0.228659,0.121951
1549475632575,-0.156677,-0.659851,-0.755310,0.137195,-0.259146,0.152439
1549475632590,-0.158142,-0.656128,-0.758911,0.060976,-0.289634,0.121951
1549475632598,-0.158325,-0.656189,-0.757507,0.030488,-0.289634,0.091463
1549475632605,-0.158630,-0.657959,-0.755005,0.091463,-0.289634,0.076220
1549475632619,-0.157776,-0.656921,-0.752441,0.213415,-0.289634,0.091463
1549475632627,-0.159546,-0.659546,-0.755310,0.259146,-0.289634,0.076220
1549475632634,-0.158325,-0.659302,-0.757568,0.228659,-0.243902,0.106707
1549475632649,-0.156555,-0.658264,-0.756836,0.182927,-0.228659,0.121951
1549475632657,-0.154785,-0.658020,-0.758057,0.152439,-0.228659,0.121951
1549475632664,-0.158264,-0.657471,-0.757507,0.167683,-0.243902,0.121951
1549475632679,-0.157471,-0.658325,-0.756531,0.182927,-0.228659,0.106707
1549475632687,-0.157166,-0.659302,-0.754272,0.198171,-0.243902,0.137195
1549475632694,-0.157532,-0.656860,-0.752502,0.167683,-0.228659,0.167683
1549475632709,-0.157288,-0.656189,-0.754333,0.091463,-0.167683,0.121951
1549475632717,-0.156555,-0.654907,-0.754395,0.030488,-0.167683,0.091463
1549475632724,-0.158081,-0.657593,-0.755188,0.091463,-0.182927,0.106707
1549475632739,-0.157410,-0.659119,-0.755798,0.182927,-0.228659,0.121951
1549475632747,-0.157166,-0.662109,-0.753540,0.243902,-0.274390,0.121951
1549475632754,-0.158630,-0.660217,-0.751770,0.243902,-0.259146,0.121951
1549475632769,-0.156372,-0.659485,-0.750916,0.213415,-0.274390,0.121951
1549475632777,-0.155273,-0.658142,-0.754700,0.182927,-0.274390,0.106707
1549475632784,-0.157898,-0.659363,-0.755066,0.152439,-0.259146,0.106707
1549475632799,-0.158752,-0.660461,-0.757629,0.198171,-0.274390,0.076220
1549475632807,-0.158386,-0.661072,-0.757996,0.182927,-0.289634,0.060976
1549475632814,-0.161316,-0.661438,-0.754944,0.198171,-0.289634,0.045732
1549475632829,-0.161865,-0.661804,-0.753235,0.198171,-0.289634,0.045732
1549475632837,-0.162109,-0.661194,-0.750366,0.167683,-0.289634,0.015244
1549475632844,-0.161377,-0.662231,-0.750854,0.121951,-0.243902,0.000000
1549475632859,-0.160278,-0.662170,-0.755371,0.152439,-0.228659,0.000000
1549475632867,-0.157776,-0.660095,-0.757629,0.106707,-0.243902,-0.015244
1549475632874,-0.158813,-0.659119,-0.755310,0.045732,-0.243902,-0.045732
1549475632889,-0.159668,-0.657166,-0.756653,0.076220,-0.243902,-0.030488
1549475632897,-0.158386,-0.658325,-0.754028,0.152439,-0.243902,-0.030488
1549475632904,-0.160889,-0.661926,-0.754211,0.198171,-0.243902,-0.015244
1549475632919,-0.161072,-0.658875,-0.756348,0.137195,-0.213415,0.015244
1549475632927,-0.158630,-0.658691,-0.753906,0.030488,-0.182927,0.030488
1549475632934,-0.158142,-0.656738,-0.755310,-0.060976,-0.167683,0.045732
1549475632949,-0.157837,-0.654968,-0.756958,0.015244,-0.167683,0.030488
1549475632956,-0.158691,-0.656738,-0.753357,0.167683,-0.198171,0.060976
1549475632964,-0.157349,-0.659729,-0.752930,0.243902,-0.198171,0.106707
1549475632979,-0.156616,-0.661499,-0.751831,0.259146,-0.182927,0.152439
1549475632986,-0.158691,-0.658691,-0.751831,0.228659,-0.182927,0.167683
1549475632994,-0.158630,-0.660217,-0.754517,0.198171,-0.167683,0.152439
1549475633009,-0.156189,-0.659119,-0.752625,0.152439,-0.182927,0.137195
1549475633016,-0.154297,-0.659729,-0.753479,0.182927,-0.213415,0.106707
1549475633024,-0.155701,-0.661621,-0.756409,0.182927,-0.198171,0.076220
1549475633039,-0.158264,-0.660339,-0.752930,0.152439,-0.182927,0.121951
1549475633046,-0.155945,-0.658997,-0.752258,0.076220,-0.182927,0.152439
1549475633054,-0.154785,-0.658386,-0.752136,0.030488,-0.152439,0.106707
1549475633069,-0.157288,-0.660217,-0.751160,0.076220,-0.182927,0.137195
1549475633077,-0.155701,-0.657227,-0.752014,0.121951,-0.243902,0.137195
1549475633084,-0.156250,-0.658325,-0.754639,0.121951,-0.274390,0.091463
1549475633100,-0.157532,-0.662598,-0.754395,0.106707,-0.274390,0.045732
1549475633107,-0.156311,-0.659546,-0.755188,0.121951,-0.335366,0.030488
1549475633115,-0.161011,-0.658264,-0.752319,0.106707,-0.320122,0.030488
1549475633130,-0.160828,-0.657898,-0.753235,0.076220,-0.320122,-0.015244
1549475633137,-0.161499,-0.658142,-0.754822,0.106707,-0.335366,-0.015244
1549475633145,-0.162109,-0.658508,-0.754883,0.091463,-0.320122,0.000000
1549475633160,-0.161133,-0.657959,-0.750427,0.076220,-0.304878,0.015244
1549475633167,-0.161743,-0.658936,-0.754517,0.076220,-0.289634,0.030488
1549475633175,-0.159668,-0.658875,-0.754639,0.076220,-0.259146,0.045732
1549475633189,-0.158020,-0.659851,-0.752380,0.091463,-0.243902,0.076220
1549475633197,-0.158081,-0.658752,-0.752991,0.091463,-0.243902,0.076220
1549475633205,-0.160217,-0.657654,-0.755371,0.030488,-0.243902,0.045732
1549475633220,-0.161560,-0.657776,-0.753723,0.015244,-0.213415,0.045732
1549475633227,-0.160767,-0.656921,-0.752502,0.076220,-0.243902,0.060976
1549475633234,-0.161560,-0.658813,-0.753601,0.152439,-0.228659,0.060976
1549475633249,-0.160767,-0.662476,-0.756104,0.182927,-0.198171,0.060976
1549475633257,-0.158081,-0.664246,-0.753174,0.198171,-0.243902,0.076220
1549475633264,-0.158325,-0.660767,-0.753723,0.213415,-0.213415,0.076220
1549475633280,-0.158508,-0.659607,-0.755798,0.137195,-0.198171,0.045732
1549475633287,-0.157593,-0.657288,-0.756348,0.030488,-0.182927,0.060976
1549475633295,-0.159485,-0.657532,-0.754761,0.000000,-0.182927,0.045732
1549475633310,-0.161499,-0.660828,-0.755310,0.000000,-0.228659,0.000000
1549475633317,-0.159424,-0.660828,-0.756409,-0.030488,-0.228659,0.000000
1549475633324,-0.158325,-0.658325,-0.752930,-0.076220,-0.167683,0.000000
1549475633339,-0.158325,-0.656860,-0.752014,-0.091463,-0.198171,-0.015244
1549475633347,-0.158508,-0.657654,-0.752380,-0.045732,-0.213415,-0.030488
1549475633354,-0.157532,-0.660339,-0.749329,0.060976,-0.243902,-0.045732
1549475633369,-0.157471,-0.658997,-0.751221,0.076220,-0.274390,0.000000
1549475633384,-0.157654,-0.657654,-0.752747,0.015244,-0.274390,0.000000
1549475633385,-0.158386,-0.657715,-0.756592,0.000000,-0.228659,0.030488
1549475633400,-0.157227,-0.656799,-0.758240,0.030488,-0.243902,0.015244
1549475633407,-0.158875,-0.656738,-0.755371,0.045732,-0.228659,-0.015244
1549475633414,-0.159607,-0.658325,-0.754028,0.076220,-0.228659,-0.045732
1549475633429,-0.159058,-0.660889,-0.755371,0.137195,-0.243902,-0.045732
1549475633437,-0.159363,-0.664001,-0.756531,0.076220,-0.243902,-0.045732
1549475633444,-0.159485,-0.662903,-0.754395,0.045732,-0.228659,-0.045732
1549475633459,-0.157288,-0.660645,-0.753967,0.045732,-0.213415,-0.060976
1549475633466,-0.158508,-0.659668,-0.753052,-0.015244,-0.167683,-0.045732
1549475633474,-0.159119,-0.660339,-0.752991,-0.060976,-0.167683,-0.060976
1549475633489,-0.158997,-0.659851,-0.750793,-0.015244,-0.213415,-0.106707
1549475633497,-0.159729,-0.658691,-0.753052,0.045732,-0.167683,-0.121951
1549475633504,-0.159546,-0.656006,-0.753601,0.045732,-0.167683,-0.106707
1549475633520,-0.161499,-0.656067,-0.757935,0.000000,-0.121951,-0.091463
1549475633527,-0.160583,-0.656799,-0.759216,0.015244,-0.137195,-0.030488
1549475633535,-0.158508,-0.654724,-0.756042,0.000000,-0.152439,-0.045732
1549475633550,-0.156555,-0.658020,-0.753540,-0.030488,-0.152439,-0.045732
1549475633558,-0.155640,-0.661072,-0.753845,0.000000,-0.167683,-0.060976
1549475633565,-0.157532,-0.661133,-0.752136,0.015244,-0.167683,-0.030488
1549475633587,-0.157776,-0.662354,-0.753723,0.045732,-0.167683,-0.030488
1549475633595,-0.157837,-0.660767,-0.755066,0.045732,-0.167683,0.000000
1549475633596,-0.156311,-0.656128,-0.755371,0.000000,-0.167683,0.030488
1549475633609,-0.158203,-0.656616,-0.755859,-0.030488,-0.182927,0.030488
1549475633617,-0.155396,-0.656860,-0.753540,0.015244,-0.228659,0.015244
1549475633624,-0.157898,-0.655762,-0.753662,0.137195,-0.243902,0.000000
1549475633639,-0.157837,-0.659180,-0.754517,0.121951,-0.243902,0.000000
1549475633647,-0.157410,-0.659302,-0.753113,0.060976,-0.228659,0.015244
1549475633654,-0.159302,-0.656860,-0.756653,0.060976,-0.213415,0.030488
1549475633669,-0.159729,-0.657654,-0.759521,0.060976,-0.182927,0.030488
1549475633677,-0.160156,-0.657898,-0.760010,0.076220,-0.198171,0.000000
1549475633691,-0.158813,-0.656433,-0.755310,0.091463,-0.243902,-0.015244
1549475633699,-0.156250,-0.655945,-0.751282,0.030488,-0.213415,-0.030488
1549475633707,-0.158386,-0.656372,-0.752075,0.015244,-0.167683,-0.045732
1549475633714,-0.159485,-0.660706,-0.756287,0.045732,-0.167683,-0.076220
1549475633729,-0.157288,-0.658325,-0.754639,0.060976,-0.167683,-0.045732
1549475633737,-0.157959,-0.652283,-0.754395,0.045732,-0.182927,-0.030488
1549475633744,-0.160706,-0.654785,-0.755981,0.060976,-0.198171,-0.045732
1549475633759,-0.158508,-0.650574,-0.752563,0.198171,-0.243902,-0.076220
1549475633767,-0.160767,-0.647339,-0.750793,0.365854,-0.289634,-0.030488
1549475633774,-0.166565,-0.647339,-0.755188,0.411585,-0.259146,-0.076220
1549475633789,-0.176514,-0.650696,-0.747681,0.381098,-0.259146,-0.091463
1549475633796,-0.174561,-0.658264,-0.755249,0.426829,-0.228659,-0.076220
1549475633804,-0.165344,-0.662415,-0.771179,0.731707,-0.076220,0.000000
1549475633819,-0.160583,-0.652222,-0.764099,0.838415,-0.198171,0.121951
1549475633827,-0.165039,-0.643066,-0.763977,0.411585,-0.106707,0.182927
1549475633834,-0.166687,-0.655518,-0.767700,-0.030488,0.000000,-0.076220
1549475633850,-0.162354,-0.651001,-0.764099,0.091463,0.000000,-0.106707
1549475633857,-0.158813,-0.665588,-0.764099,0.381098,-0.182927,0.000000
1549475633865,-0.159241,-0.666687,-0.750793,0.426829,-0.289634,-0.243902
1549475633880,-0.160278,-0.664673,-0.744324,0.548781,-0.365854,-0.182927
1549475633895,-0.158813,-0.670593,-0.739014,0.579268,-0.396341,-0.152439
1549475633902,-0.154968,-0.673645,-0.740540,0.457317,-0.457317,-0.121951
1549475633910,-0.149780,-0.669861,-0.742371,0.121951,-0.503049,-0.137195
1549475633917,-0.149780,-0.665710,-0.742615,-0.091463,-0.503049,-0.167683
1549475633925,-0.154724,-0.662720,-0.746216,0.030488,-0.548781,-0.167683
1549475633940,-0.154785,-0.660828,-0.753296,0.121951,-0.655488,-0.182927
1549475633947,-0.154053,-0.661316,-0.755615,0.137195,-0.655488,-0.198171
1549475633955,-0.156860,-0.661804,-0.754089,0.091463,-0.701219,-0.243902
1549475633970,-0.160278,-0.658020,-0.756348,0.000000,-0.609756,-0.228659
1549475633977,-0.164185,-0.652649,-0.757690,-0.091463,-0.518293,-0.198171
1549475633985,-0.171204,-0.653992,-0.759460,-0.137195,-0.442073,-0.213415
1549475634000,-0.173462,-0.659119,-0.761780,-0.106707,-0.289634,-0.182927
1549475634007,-0.171692,-0.662354,-0.757385,-0.030488,-0.304878,-0.137195
1549475634015,-0.171875,-0.660522,-0.754333,0.000000,-0.350610,-0.121951
1549475634030,-0.171875,-0.666748,-0.755432,-0.091463,-0.350610,-0.152439
1549475634037,-0.168518,-0.659424,-0.752136,-0.137195,-0.365854,-0.121951
1549475634045,-0.165161,-0.646423,-0.754028,-0.060976,-0.396341,-0.015244
1549475634060,-0.164673,-0.652893,-0.758850,-0.106707,-0.426829,-0.106707
1549475634067,-0.168335,-0.656067,-0.762451,-0.182927,-0.503049,-0.228659
1549475634075,-0.176941,-0.642029,-0.766602,-0.213415,-0.640244,-0.243902
1549475634089,-0.181213,-0.649414,-0.777283,-0.289634,-0.716463,-0.365854
1549475634097,-0.176575,-0.657654,-0.776489,-0.503049,-0.792683,-0.579268
1549475634105,-0.174438,-0.646057,-0.769958,-0.640244,-0.945122,-0.670732
1549475634119,-0.173218,-0.642639,-0.769226,-0.853659,-1.051829,-0.792683
1549475634127,-0.173462,-0.634033,-0.769958,-1.143293,-1.067073,-0.975610
1549475634135,-0.171387,-0.631226,-0.773682,-1.280488,-1.112805,-1.006098
1549475634150,-0.177673,-0.644287,-0.770874,-1.570122,-1.112805,-1.112805
1549475634157,-0.179504,-0.657288,-0.767273,-2.118902,-1.006098,-1.158537
1549475634165,-0.182800,-0.658752,-0.756958,-2.728659,-0.990854,-1.082317
1549475634180,-0.185791,-0.653687,-0.757446,-3.460366,-0.899390,-1.036585
1549475634187,-0.194397,-0.663696,-0.757080,-4.146341,-0.625000,-1.082317
1549475634202,-0.198120,-0.682495,-0.750000,-4.420732,-0.625000,-1.128049
1549475634217,-0.201660,-0.668884,-0.745178,-5.015244,-0.685976,-0.975610
1549475634218,-0.202332,-0.655518,-0.750977,-5.914634,-0.411585,-0.807927
1549475634225,-0.190491,-0.666809,-0.756836,-6.661585,-0.091463,-0.853659
1549475634241,-0.177612,-0.653137,-0.772339,-7.530488,-0.152439,-0.853659
1549475634247,-0.170166,-0.607056,-0.785339,-8.765244,-0.060976,-0.716463
1549475634262,-0.157837,-0.575806,-0.788208,-9.618902,0.121951,-0.838415
1549475634270,-0.139099,-0.587769,-0.796021,-9.695122,-0.015244,-1.128049
1549475634278,-0.125732,-0.603577,-0.791870,-9.786586,-0.396341,-1.371951
1549475634285,-0.113892,-0.593506,-0.801270,-10.167684,-0.701219,-1.493902
1549475634301,-0.125305,-0.660400,-0.784668,-10.838415,-0.914634,-1.829268
1549475634310,-0.130676,-0.656677,-0.764648,-12.439025,-1.036585,-1.951220
1549475634317,-0.131897,-0.617676,-0.782104,-14.375000,-0.640244,-1.265244
1549475634329,-0.125793,-0.604553,-0.773315,-15.655488,-0.274390,-1.280488
1549475634337,-0.109680,-0.553894,-0.793640,-14.939025,-0.182927,-1.021341
1549475634344,-0.093750,-0.552185,-0.812195,-12.789635,-0.411585,-0.487805
1549475634360,-0.088989,-0.577637,-0.821472,-10.518293,-0.625000,-0.457317
1549475634367,-0.091553,-0.595886,-0.836426,-9.268292,-0.853659,-0.198171
1549475634375,-0.095703,-0.582703,-0.854065,-9.237805,-1.021341,0.243902
1549475634390,-0.102661,-0.554260,-0.866760,-9.969512,-1.006098,0.609756
1549475634397,-0.085693,-0.549988,-0.857544,-10.472561,-0.762195,0.823171
1549475634405,-0.084473,-0.577026,-0.836060,-9.054878,-0.487805,1.356707
1549475634420,-0.138672,-0.622131,-0.701355,-6.265244,-0.335366,1.966463
1549475634427,-0.135315,-0.791809,-0.720337,-3.795732,0.442073,2.317073
1549475634435,-0.140747,-0.735352,-0.736328,1.448171,1.295732,3.750000
1549475634450,-0.155518,-0.727905,-0.726807,7.728659,0.304878,6.128049
1549475634457,-0.148926,-0.760925,-0.751770,8.719512,1.539634,6.692073
1549475634465,-0.143616,-0.723877,-0.795654,8.841464,2.850610,7.469512
1549475634480,-0.153503,-0.699158,-0.837585,10.243902,3.201220,9.283537
1549475634487,-0.170532,-0.677429,-0.855530,13.140244,2.896342,10.228659
1549475634495,-0.191589,-0.679016,-0.867676,16.920732,2.271342,11.036586
1549475634510,-0.214844,-0.682922,-0.868774,20.274391,1.539634,11.844513
1549475634517,-0.232788,-0.647644,-0.862183,23.551830,1.128049,12.774390
1549475634524,-0.249634,-0.636353,-0.851013,28.033537,0.853659,13.551829
1549475634540,-0.258362,-0.656860,-0.840210,35.000000,0.411585,13.353659
1549475634547,-0.272400,-0.684753,-0.806946,42.759148,-0.198171,14.192074
1549475634555,-0.292664,-0.712280,-0.777954,49.923782,-0.762195,15.335366
1549475634570,-0.298767,-0.714905,-0.752014,56.905491,-0.762195,15.594513
1549475634577,-0.302307,-0.721619,-0.717102,63.658539,-0.365854,15.731708
1549475634585,-0.309631,-0.745972,-0.694946,70.045731,-0.289634,15.716464
1549475634600,-0.307068,-0.797058,-0.676819,74.801834,-0.106707,15.396342
1549475634615,-0.306580,-0.880005,-0.668457,76.585365,0.259146,14.862805
1549475634622,-0.300171,-0.945618,-0.674683,74.512199,0.716463,14.268293
1549475634630,-0.284302,-0.936279,-0.672302,69.207321,1.646341,14.207317
1549475634637,-0.275879,-0.903137,-0.643738,63.384148,2.576220,14.405488
1549475634645,-0.279663,-0.887146,-0.595337,59.192074,2.881098,14.283537
1549475634660,-0.290039,-0.890503,-0.531189,57.362804,2.530488,14.009147
1549475634667,-0.293396,-0.872253,-0.466919,57.225613,2.103659,13.917684
1549475634675,-0.296265,-0.889709,-0.409119,57.987804,1.844512,14.192074
1549475634690,-0.307434,-0.973511,-0.346191,58.750000,1.448171,14.268293
1549475634697,-0.315918,-1.043823,-0.301941,58.368904,0.975610,14.146341
1549475634712,-0.322388,-1.078674,-0.277527,55.990856,0.899390,14.481708
1549475634720,-0.320740,-1.087891,-0.248718,52.012196,1.173781,14.893293
1549475634727,-0.317505,-1.049133,-0.219055,48.048782,1.402439,15.137196
1549475634735,-0.324524,-1.014771,-0.188171,45.304878,1.310976,15.716464
1549475634750,-0.330627,-1.029846,-0.138550,43.399391,1.173781,16.265244
1549475634757,-0.341248,-1.069824,-0.061523,42.942074,0.975610,16.661585
1549475634765,-0.348938,-1.076355,-0.017883,41.539635,0.838415,17.271341
1549475634780,-0.354919,-1.055176,0.011230,38.094513,1.097561,17.972561
1549475634787,-0.363831,-1.055054,0.046936,32.896343,1.646341,18.338415
1549475634795,-0.372498,-1.057007,0.080078,27.682928,2.134146,18.399391
1549475634810,-0.378784,-1.040894,0.100220,23.597561,2.545732,18.841463
1549475634817,-0.390930,-1.012024,0.114014,20.000000,3.079268,19.405489
1549475634825,-0.403076,-0.982178,0.114624,16.554878,3.643293,19.588415
1549475634840,-0.413452,-0.961792,0.122009,13.856708,4.146341,19.740854
1549475634847,-0.428589,-0.969543,0.146423,11.920732,4.527439,20.000000
1549475634855,-0.440430,-0.986084,0.167725,10.137196,4.954268,20.030489
1549475634870,-0.446350,-0.956604,0.168335,8.323171,5.487805,20.182928
1549475634877,-0.455078,-0.930847,0.172119,6.722561,6.082317,20.564024
1549475634885,-0.469849,-0.918579,0.157349,5.259147,6.676829,20.670732
1549475634900,-0.484314,-0.896851,0.136902,4.146341,7.179878,20.746952
1549475634907,-0.502747,-0.914917,0.140747,2.881098,7.637195,20.960367
1549475634915,-0.513000,-0.906189,0.133301,0.777439,7.881098,20.823172
1549475634930,-0.515930,-0.847778,0.106995,-1.448171,8.185976,20.899391
1549475634937,-0.523865,-0.808044,0.088989,-3.277439,8.475610,21.112806
1549475634945,-0.539673,-0.807495,0.086121,-4.618903,8.521341,20.762196
1549475634960,-0.552612,-0.798401,0.077698,-5.746952,8.506098,20.396341
1549475634967,-0.566040,-0.772217,0.068787,-6.676829,8.582317,20.274391
1549475634975,-0.575256,-0.769409,0.065918,-7.378049,8.582317,20.015244
1549475634990,-0.582520,-0.761841,0.059448,-7.743903,8.582317,19.496952
1549475634997,-0.594849,-0.726807,0.035767,-7.713415,8.567074,19.192074
1549475635005,-0.610168,-0.691650,0.018799,-7.256098,8.551829,18.932928
1549475635020,-0.626953,-0.697388,0.023193,-6.692073,8.475610,18.307928
1549475635027,-0.632385,-0.699280,0.017944,-6.067073,8.277439,17.728659
1549475635035,-0.636353,-0.677673,0.008545,-5.289634,8.231708,17.347561
1549475635050,-0.651062,-0.673950,0.015564,-4.557927,8.185976,16.981709
1549475635057,-0.662170,-0.672546,0.010864,-3.917683,8.048780,16.326220
1549475635065,-0.668274,-0.645996,-0.007690,-3.231707,8.048780,15.716464
1549475635080,-0.680420,-0.634705,-0.016846,-2.591464,8.033537,15.320123
1549475635087,-0.694885,-0.644531,-0.011841,-2.179878,7.881098,14.710366
1549475635095,-0.697021,-0.640320,-0.016846,-1.707317,7.804878,14.024390
1549475635110,-0.703003,-0.635254,-0.016296,-0.823171,7.759147,13.750000
1549475635117,-0.710571,-0.625854,-0.025452,0.259146,7.667683,13.429878
1549475635125,-0.718506,-0.621216,-0.031189,1.310976,7.576220,12.881098
1549475635140,-0.730225,-0.629395,-0.031677,2.317073,7.515244,12.423780
1549475635147,-0.741638,-0.626099,-0.027039,3.231707,7.347561,11.935976
1549475635155,-0.750732,-0.616394,-0.033081,3.871951,7.256098,11.615854
1549475635170,-0.761719,-0.605469,-0.039307,4.176829,7.240854,11.295732
1549475635178,-0.768311,-0.622742,-0.029724,4.268293,7.256098,10.823171
1549475635185,-0.773926,-0.647095,-0.020203,4.329268,7.240854,10.365854
1549475635200,-0.777649,-0.663940,-0.016541,4.649390,7.301829,10.182927
1549475635207,-0.786072,-0.669067,-0.015198,5.167683,7.423780,10.198171
1549475635215,-0.795593,-0.677917,-0.009399,5.823171,7.545732,10.304878
1549475635230,-0.801880,-0.690796,-0.006226,6.615854,7.759147,10.411586
1549475635237,-0.810730,-0.679138,-0.017151,7.682927,8.064025,10.746951
1549475635245,-0.819397,-0.654358,-0.038269,8.948171,8.338415,11.371951
1549475635260,-0.825989,-0.646423,-0.053284,9.893293,8.612805,11.844513
1549475635267,-0.831421,-0.651306,-0.059387,10.457317,8.917684,12.134147
1549475635275,-0.836365,-0.639038,-0.068970,10.899390,9.146341,12.454268
1549475635290,-0.842224,-0.602417,-0.091919,11.051829,9.314025,12.850610
1549475635297,-0.844727,-0.583252,-0.099548,10.579268,9.451220,13.033537
1549475635305,-0.845459,-0.579956,-0.101624,9.618902,9.542684,12.713415
1549475635320,-0.842957,-0.559753,-0.104492,8.887196,9.573171,12.484756
1549475635327,-0.839111,-0.518433,-0.120483,8.932927,9.573171,12.500000
1549475635335,-0.840576,-0.482666,-0.132019,9.527439,9.405488,12.271341
1549475635357,-0.836182,-0.461548,-0.165283,10.426829,9.161586,11.539635
1549475635358,-0.829346,-0.479248,-0.172485,11.234756,8.902439,10.670732
1549475635365,-0.828003,-0.465393,-0.196838,9.512196,8.826220,9.527439
1549475635380,-0.838806,-0.434753,-0.183655,7.073171,8.399390,7.987805
1549475635387,-0.837219,-0.415588,-0.169556,5.762195,7.408537,6.875000
1549475635395,-0.841187,-0.414978,-0.143677,6.173780,7.012195,5.579268
1549475635410,-0.832092,-0.420166,-0.186523,9.009147,6.143293,5.625000
1549475635417,-0.842224,-0.503174,-0.160522,12.317074,5.487805,5.152439
1549475635425,-0.852966,-0.467102,-0.191772,10.975610,4.740854,3.521342
1549475635440,-0.863647,-0.464783,-0.201477,8.810976,4.298780,3.048780
1549475635447,-0.853882,-0.478943,-0.204590,6.859756,3.445122,2.911585
1549475635455,-0.841370,-0.422852,-0.226013,4.024390,2.698171,2.164634
1549475635470,-0.846130,-0.412231,-0.227112,2.545732,1.768293,1.402439
1549475635477,-0.852783,-0.447876,-0.225403,2.804878,0.670732,0.716463
1549475635485,-0.861206,-0.439331,-0.220032,3.338415,-0.457317,0.000000
1549475635500,-0.862488,-0.415710,-0.201355,3.262195,-1.570122,-0.411585
1549475635507,-0.861450,-0.412415,-0.168274,3.780488,-2.606707,-0.625000
1549475635515,-0.858032,-0.413452,-0.148193,6.128049,-3.567073,-1.036585
1549475635530,-0.849487,-0.415894,-0.132629,9.268292,-4.253049,-1.432927
1549475635537,-0.842224,-0.437195,-0.126221,12.118903,-4.771342,-2.118902
1549475635545,-0.825012,-0.450073,-0.128723,14.557927,-5.000000,-3.003049
1549475635560,-0.798584,-0.466675,-0.131592,15.884147,-4.634146,-4.146341
1549475635567,-0.793945,-0.489746,-0.119385,15.076220,-4.375000,-5.716464
1549475635575,-0.781799,-0.516174,-0.098877,12.972561,-5.426829,-7.545732
1549475635590,-0.791931,-0.517273,-0.106323,9.131098,-5.365854,-9.237805
1549475635597,-0.815063,-0.501770,-0.080627,3.750000,-5.838415,-10.655488
1549475635605,-0.791870,-0.493652,-0.093201,-1.310976,-7.057927,-12.256098
1549475635620,-0.803223,-0.487610,-0.080933,-4.801829,-6.615854,-13.795732
1549475635627,-0.797485,-0.507751,-0.045288,-4.740854,-7.972561,-14.146341
1549475635635,-0.740295,-0.546326,-0.065674,-2.652439,-8.917684,-14.634147
1549475635650,-0.769226,-0.538452,-0.040833,-2.942073,-7.896342,-15.884147
1549475635657,-0.786804,-0.555359,-0.005554,-3.399390,-9.527439,-16.981709
1549475635665,-0.759949,-0.584045,0.006226,-1.951220,-9.878049,-17.987804
1549475635680,-0.739868,-0.593201,-0.006287,1.189024,-9.512196,-18.307928
1549475635687,-0.717957,-0.588867,-0.037842,3.810976,-9.679878,-18.643293
1549475635695,-0.701050,-0.589294,-0.064941,4.664634,-9.740854,-19.573172
1549475635710,-0.692139,-0.613708,-0.062317,4.070122,-10.106708,-20.807928
1549475635717,-0.679016,-0.628662,-0.053406,3.094512,-10.853659,-21.875000
1549475635725,-0.665039,-0.660767,-0.006470,2.484756,-11.615854,-22.454269
1549475635740,-0.655762,-0.726807,0.064941,2.225610,-12.317074,-23.109756
1549475635747,-0.644104,-0.714172,0.072021,2.286585,-13.155488,-23.856709
1549475635755,-0.634583,-0.685303,0.073730,2.500000,-13.551829,-24.009148
1549475635770,-0.627075,-0.698669,0.060486,2.378049,-13.582317,-24.481709
1549475635777,-0.613525,-0.703369,0.044434,2.621951,-14.039635,-25.106709
1549475635785,-0.597290,-0.733276,0.059387,3.064024,-14.405488,-25.060976
1549475635800,-0.582214,-0.755432,0.057617,3.490854,-14.939025,-25.045732
1549475635807,-0.566162,-0.810913,0.138489,3.658537,-15.762196,-24.984756
1549475635815,-0.562256,-0.882568,0.219971,3.216464,-16.310976,-25.152439
1549475635830,-0.548584,-0.841431,0.216370,3.048780,-16.859756,-24.878050
1549475635837,-0.536377,-0.798401,0.175293,3.643293,-16.676830,-23.673780
1549475635845,-0.534546,-0.799622,0.142822,3.262195,-16.417683,-23.628050
1549475635860,-0.525269,-0.812561,0.125610,2.789634,-16.798780,-24.054878
1549475635867,-0.508667,-0.829224,0.113647,3.323171,-17.256098,-23.445122
1549475635882,-0.498047,-0.905823,0.193054,4.146341,-17.926830,-22.378050
1549475635890,-0.492126,-0.963013,0.224365,4.710366,-18.856709,-21.981709
1549475635897,-0.475769,-0.914307,0.203308,5.396342,-19.695122,-21.021341
1549475635905,-0.475403,-0.885803,0.188904,5.792683,-19.695122,-19.420732
1549475635920,-0.479675,-0.867798,0.153564,5.137195,-20.121952,-18.948172
1549475635927,-0.467896,-0.847595,0.122314,4.618903,-20.960367,-18.445122
1549475635935,-0.455688,-0.878723,0.141479,4.466464,-21.631098,-17.271341
1549475635950,-0.455688,-0.932800,0.233398,3.643293,-22.713415,-16.478659
1549475635957,-0.456421,-0.985962,0.365723,2.149390,-23.856709,-15.914635
1549475635965,-0.445129,-0.994446,0.425903,1.387195,-24.253050,-14.923780
1549475635980,-0.425964,-0.931580,0.416260,2.667683,-23.750000,-13.368903
1549475635987,-0.431458,-0.885254,0.376038,4.710366,-22.393293,-12.012196
1549475635995,-0.458740,-0.886475,0.338806,6.768293,-21.189024,-11.859756
1549475636010,-0.486816,-0.916565,0.289673,9.771341,-19.878050,-12.103659
1549475636017,-0.495728,-0.976379,0.282410,12.591464,-18.048780,-12.286586
1549475636025,-0.474854,-1.063110,0.356567,13.018293,-16.631098,-12.865854
1549475636040,-0.413391,-1.070007,0.390686,11.112805,-15.914635,-13.643293
1549475636047,-0.330933,-1.030640,0.435974,8.567074,-14.817074,-13.399390
1549475636055,-0.286255,-0.999512,0.479370,5.685976,-13.384147,-13.079268
1549475636070,-0.265686,-0.950134,0.488220,3.201220,-12.850610,-13.368903
1549475636077,-0.259155,-0.955872,0.502441,1.920732,-12.088415,-13.185976
1549475636085,-0.261780,-0.988647,0.496948,1.006098,-11.280488,-12.667684
1549475636100,-0.258057,-0.980652,0.470520,0.228659,-10.914635,-11.753049
1549475636107,-0.249146,-0.978455,0.459167,-0.503049,-10.457317,-10.564025
1549475636116,-0.250671,-1.018494,0.520569,-1.493902,-10.045732,-9.969512
1549475636130,-0.249023,-1.037659,0.536499,-1.432927,-9.695122,-9.664635
1549475636137,-0.233276,-0.998718,0.494202,0.609756,-8.932927,-8.567074
1549475636145,-0.237671,-0.992188,0.441467,3.506098,-7.362805,-7.301829
1549475636160,-0.258362,-0.986572,0.399109,5.945122,-6.478659,-6.996952
1549475636167,-0.268127,-0.997742,0.372437,7.728659,-6.265244,-6.722561
1549475636175,-0.265930,-1.014404,0.376343,8.643292,-6.006098,-6.143293
1549475636190,-0.261047,-0.979187,0.365417,8.185976,-5.945122,-5.548780
1549475636197,-0.250000,-0.957031,0.338989,5.838415,-6.128049,-5.121951
1549475636205,-0.234070,-1.005432,0.386902,1.814024,-6.402439,-5.442073
1549475636220,-0.222961,-1.094971,0.544617,-2.301829,-6.737805,-5.823171
1549475636227,-0.197632,-1.096924,0.594116,-4.390244,-6.920732,-4.984756
1549475636235,-0.152771,-0.990295,0.554016,-4.405488,-6.295732,-3.094512
1549475636251,-0.136841,-0.956543,0.500000,-3.185976,-4.695122,-1.783537
1549475636257,-0.155457,-0.993896,0.453613,-0.762195,-3.795732,-1.661585
1549475636265,-0.184753,-0.999878,0.435852,2.698171,-3.490854,-1.265244
1549475636280,-0.207336,-1.011475,0.448975,5.045732,-3.216464,-0.213415
1549475636287,-0.214111,-1.013855,0.479370,4.420732,-2.896342,0.365854
1549475636295,-0.223816,-0.976868,0.467834,1.814024,-2.500000,0.274390
1549475636310,-0.217346,-1.055847,0.429382,-1.783537,-1.935976,0.335366
1549475636317,-0.205322,-1.067810,0.364746,-6.051829,-1.356707,-0.045732
1549475636325,-0.192749,-0.985779,0.304260,-10.716464,-1.737805,-0.030488
1549475636340,-0.169861,-0.910461,0.249695,-15.518293,-1.981707,0.243902
1549475636347,-0.155884,-0.896545,0.284851,-17.621952,-2.362805,-0.396341
1549475636355,-0.161560,-0.890686,0.328491,-14.893293,-3.216464,-0.625000
1549475636370,-0.173828,-0.885742,0.396179,-8.750000,-3.628049,-0.076220
1549475636377,-0.180908,-0.994141,0.407227,-2.835366,-3.246951,0.274390
1549475636385,-0.180115,-0.997864,0.364685,-0.350610,-3.216464,0.198171
1549475636400,-0.166809,-0.989624,0.330750,-0.350610,-3.155488,0.868902
1549475636407,-0.151917,-0.984131,0.276001,-2.286585,-3.064024,1.631098
1549475636415,-0.141235,-0.969604,0.257629,-5.350610,-3.460366,1.478659
1549475636430,-0.141785,-0.962219,0.259583,-7.926829,-3.932927,1.448171
1549475636437,-0.167236,-0.999023,0.313721,-8.307927,-4.329268,1.554878
1549475636445,-0.201904,-1.035706,0.339417,-6.783537,-4.542683,1.646341
1549475636460,-0.215088,-0.962891,0.327759,-5.914634,-4.420732,1.631098
1549475636467,-0.201904,-0.910339,0.293701,-6.478659,-4.100610,1.920732
1549475636475,-0.183655,-0.896301,0.273560,-5.731708,-4.207317,2.103659
1549475636490,-0.157166,-0.900696,0.284790,-1.829268,-4.679878,1.966463
1549475636497,-0.145569,-0.918579,0.282471,2.362805,-5.045732,1.509146
1549475636505,-0.168091,-0.905273,0.289978,3.064024,-5.350610,0.899390
1549475636520,-0.204590,-0.979309,0.304932,-0.335366,-5.548780,0.198171
1549475636527,-0.210388,-1.033630,0.293762,-5.746952,-5.762195,-0.685976
1549475636535,-0.191101,-0.991882,0.248047,-11.021341,-5.777439,-1.067073
1549475636557,-0.185059,-0.938965,0.204590,-14.131098,-6.021342,-0.716463
1549475636564,-0.195496,-0.959778,0.223816,-13.231708,-6.585366,-0.091463
1549475636565,-0.213379,-1.000916,0.274048,-9.115854,-7.378049,0.472561
1549475636580,-0.225708,-0.994446,0.277588,-4.009146,-8.109756,1.021341
1549475636587,-0.206543,-0.974731,0.238831,-0.243902,-8.551829,1.783537
1549475636595,-0.170776,-0.949280,0.218750,1.417683,-8.871951,2.271342
1549475636610,-0.154236,-0.964294,0.224487,2.454268,-9.420732,2.393293
1549475636617,-0.165466,-0.988525,0.217834,3.506098,-10.060976,2.484756
1549475636632,-0.158447,-0.925354,0.184265,3.064024,-10.579268,2.835366
1549475636640,-0.138611,-0.933228,0.228271,0.625000,-10.960366,3.140244
1549475636647,-0.135376,-0.953430,0.323914,-2.545732,-11.570122,2.621951
1549475636655,-0.144836,-0.966492,0.378357,-7.698171,-11.935976,1.737805
1549475636670,-0.161743,-0.930115,0.374451,-17.118902,-11.250000,0.609756
1549475636677,-0.156860,-0.890137,0.352722,-25.975611,-10.045732,-0.670732
1549475636685,-0.140442,-0.952759,0.318420,-28.277439,-9.115854,-1.387195
1549475636700,-0.134644,-1.027222,0.283386,-26.295732,-8.673780,-1.859756
1549475636707,-0.140259,-1.072693,0.246887,-24.771341,-8.292683,-2.012195
1549475636715,-0.151245,-1.099243,0.233215,-24.588415,-7.957317,-1.722561
1549475636730,-0.154358,-1.037415,0.259888,-24.268293,-7.789634,-1.585366
1549475636737,-0.116028,-0.872314,0.253662,-22.652439,-7.439024,-1.432927
1549475636745,-0.070801,-0.934143,0.194885,-18.399391,-6.890244,-1.371951
1549475636760,-0.099854,-1.059021,0.120605,-14.481708,-6.844512,-2.515244
1549475636767,-0.142334,-0.997070,0.085205,-15.929878,-6.814024,-3.536585
1549475636775,-0.168091,-0.918762,0.063599,-19.618902,-6.387195,-3.597561
1549475636790,-0.153748,-0.896057,0.054382,-21.814024,-6.554878,-4.222561
1549475636797,-0.114746,-0.946899,0.037109,-20.655489,-7.057927,-5.121951
1549475636805,-0.093445,-1.015076,0.023193,-17.987804,-7.682927,-4.984756
1549475636820,-0.100464,-1.034485,0.054443,-16.966463,-8.003049,-4.557927
1549475636827,-0.121948,-1.020813,0.109009,-16.402439,-7.972561,-4.588415
1549475636835,-0.145630,-1.038818,0.116577,-14.649390,-7.621952,-4.496951
1549475636850,-0.169922,-1.069214,0.108643,-12.240854,-7.042683,-4.222561
1549475636865,-0.179443,-1.048523,0.097534,-9.435976,-6.463415,-3.689024
1549475636872,-0.187256,-0.987061,0.093933,-5.716464,-6.036585,-2.698171
1549475636880,-0.192932,-0.959900,0.054260,-2.423780,-5.762195,-1.859756
1549475636887,-0.199158,-1.013184,0.072510,-1.768293,-5.929878,-1.814024
1549475636895,-0.177307,-1.052124,0.110901,-2.454268,-6.295732,-2.164634
1549475636910,-0.141296,-1.021179,0.109680,-1.875000,-6.768293,-1.646341
1549475636917,-0.140564,-1.026062,0.129089,-0.289634,-7.118903,-0.548781
1549475636925,-0.142395,-1.055847,0.162292,1.250000,-7.454268,-0.182927
1549475636940,-0.109375,-1.042114,0.154175,2.667683,-7.728659,0.106707
1549475636947,-0.082581,-1.011963,0.131592,3.826220,-7.789634,0.884146
1549475636955,-0.090576,-0.983276,0.060974,5.015244,-8.018292,1.387195
1549475636970,-0.118469,-0.976196,0.013672,5.701220,-8.384147,1.844512
1549475636977,-0.124634,-0.986938,0.003906,5.182927,-8.719512,2.057927
1549475636985,-0.098328,-1.023621,0.017212,4.192073,-9.237805,1.875000
1549475637000,-0.063110,-1.017761,0.038269,2.347561,-9.603659,1.509146
1549475637007,-0.041992,-1.008911,0.027405,1.478659,-9.496951,1.219512
1549475637015,-0.063721,-1.022400,0.021057,2.012195,-9.253049,1.265244
1549475637030,-0.093140,-1.017883,0.013855,2.545732,-8.917684,1.097561
1549475637044,-0.104004,-1.037170,-0.007751,2.134146,-8.368902,0.746951
1549475637045,-0.108215,-1.009949,0.026611,1.493902,-7.881098,0.259146
1549475637060,-0.095581,-1.019104,0.030090,1.280488,-7.225610,-0.060976
1549475637067,-0.077698,-1.007751,0.014343,0.243902,-6.707317,-0.350610
1549475637075,-0.091492,-1.018433,0.051453,-0.807927,-6.356708,-0.746951
1549475637090,-0.102783,-1.010193,0.057983,-1.097561,-6.128049,-1.128049
1549475637097,-0.115356,-1.037964,0.097046,-0.685976,-5.701220,-1.036585
1549475637105,-0.106079,-1.045410,0.104248,-0.625000,-5.579268,-1.112805
1549475637120,-0.091492,-1.015015,0.078552,-0.762195,-5.503049,-1.036585
1549475637127,-0.095215,-0.954529,0.053345,-0.899390,-5.396342,-0.701219
1549475637135,-0.124573,-0.977722,0.042419,-0.137195,-5.396342,-0.411585
1549475637149,-0.153137,-0.996521,0.044861,0.777439,-5.442073,-0.259146
1549475637157,-0.148560,-0.981934,0.046875,-0.106707,-5.503049,-0.442073
1549475637165,-0.156616,-1.026733,0.078308,-1.996951,-5.716464,-0.807927
1549475637179,-0.170166,-1.018250,0.123840,-2.560976,-5.914634,-0.868902
1549475637187,-0.119202,-1.037170,0.099182,-2.271342,-5.548780,-0.548781
1549475637195,-0.044495,-1.042542,0.095154,-1.753049,-5.015244,-0.365854
1549475637209,0.005005,-1.045166,0.012634,0.533537,-4.740854,0.121951
1549475637217,-0.002380,-0.969055,0.009827,0.838415,-4.603659,0.594512
1549475637225,-0.031372,-0.985657,0.001831,-0.289634,-4.588415,0.304878
1549475637239,-0.075562,-0.985291,0.023804,-0.838415,-5.030488,0.259146
1549475637254,-0.121460,-1.060059,0.099426,-0.731707,-5.243903,0.365854
1549475637255,-0.103027,-1.019348,0.117310,-1.310976,-5.503049,0.213415
1549475637277,-0.074402,-1.015747,0.086792,-0.472561,-5.182927,0.746951
1549475637278,-0.062500,-1.062500,0.070862,1.341463,-4.679878,1.158537
1549475637285,-0.057678,-1.054688,-0.005127,3.323171,-4.405488,1.554878
1549475637300,-0.065552,-1.013306,-0.040649,1.600610,-4.100610,1.722561
1549475637307,-0.064026,-0.980530,-0.075806,-0.807927,-3.780488,0.990854
1549475637315,-0.065857,-0.971130,-0.051208,-2.484756,-3.704268,0.503049
1549475637329,-0.031982,-0.997742,0.009705,-5.121951,-3.780488,-0.228659
1549475637337,-0.009216,-1.048523,0.073730,-5.411585,-3.795732,-0.426829
1549475637345,-0.037476,-1.063843,0.125732,-2.515244,-3.506098,0.076220
1549475637359,-0.102173,-1.013855,0.101135,0.503049,-3.140244,0.472561
1549475637367,-0.162720,-1.033691,0.055115,2.423780,-2.652439,0.716463
1549475637375,-0.162964,-0.988953,0.002869,2.606707,-2.301829,0.548781
1549475637389,-0.150391,-0.974182,0.004578,0.625000,-2.134146,0.487805
1549475637397,-0.162720,-0.983398,0.022400,-1.875000,-2.378049,0.045732
1549475637405,-0.182007,-1.002930,0.072510,-3.689024,-2.545732,-0.091463
1549475637419,-0.191101,-0.991028,0.104736,-4.451220,-2.240854,-0.259146
1549475637427,-0.214905,-1.008362,0.095520,-3.445122,-1.768293,-0.304878
1549475637435,-0.184448,-1.038513,0.099976,-2.225610,-1.173781,-0.457317
1549475637449,-0.122681,-1.004028,0.110962,-2.362805,-0.853659,-0.579268
1549475637457,-0.136536,-0.964966,0.115356,-1.859756,-0.853659,-0.350610
1549475637465,-0.216431,-0.943787,0.132080,0.106707,-0.625000,-0.503049
1549475637479,-0.255981,-1.036316,0.045776,2.728659,-0.030488,-0.914634
1549475637487,-0.161926,-1.119263,-0.013123,4.771342,0.518293,-1.234756
1549475637495,0.034241,-1.018616,0.015259,3.810976,1.051829,-1.493902
1549475637509,0.083435,-0.938110,-0.056213,0.518293,0.685976,-1.829268
1549475637517,-0.063232,-0.968384,-0.009583,1.676829,-0.320122,-1.265244
1549475637525,-0.177673,-1.027649,0.054199,2.850610,-0.868902,-1.021341
1549475637540,-0.198181,-1.011902,0.106873,0.091463,-1.387195,-1.875000
1549475637547,-0.204285,-1.002319,0.123352,-1.585366,-1.509146,-2.393293
1549475637555,-0.232971,-1.036926,0.146301,-0.868902,-1.402439,-2.301829
1549475637569,-0.211304,-1.020447,0.123169,-0.243902,-1.021341,-2.713415
1549475637577,-0.145996,-1.045593,0.178589,-0.868902,-0.472561,-2.957317
1549475637585,-0.046143,-1.018494,0.124268,-1.814024,-0.060976,-3.353659
1549475637599,-0.046997,-0.969238,0.053528,-0.198171,-0.121951,-2.789634
1549475637607,-0.119141,-0.992676,-0.004333,2.911585,-0.396341,-2.271342
1549475637615,-0.124512,-1.024292,-0.005371,3.429878,-0.625000,-2.500000
1549475637629,-0.027222,-1.036682,0.019348,0.274390,-0.838415,-2.896342
1549475637637,0.068604,-1.081421,0.021057,-1.173781,-0.975610,-2.865854
1549475637645,0.125244,-1.073792,-0.042847,0.198171,-0.777439,-2.454268
1549475637652,0.128540,-0.987183,-0.120056,0.442073,-0.320122,-2.073171
1549475637667,0.096802,-0.987122,-0.107788,0.045732,-0.106707,-2.042683
1549475637675,0.050537,-0.968689,-0.118042,-0.533537,-0.426829,-2.103659
1549475637682,-0.053833,-0.989075,-0.046997,-2.134146,-0.564024,-2.012195
1549475637697,-0.124512,-1.019043,0.033020,-3.704268,-0.625000,-2.545732
1549475637705,-0.149841,-1.003052,0.075195,-4.923780,-0.289634,-2.698171
1549475637712,-0.186401,-1.055603,0.156067,-4.222561,0.609756,-2.560976
1549475637727,-0.167969,-1.061584,0.163696,-2.560976,1.387195,-2.667683
1549475637735,-0.137756,-1.010193,0.128723,-1.996951,1.829268,-2.545732
1549475637742,-0.124878,-0.987854,0.078369,-1.371951,2.057927,-2.621951
1549475637757,-0.115479,-0.964233,0.030151,-0.762195,2.073171,-2.560976
1549475637765,-0.098755,-0.996216,0.014832,-0.228659,2.088415,-2.469512
1549475637772,-0.055603,-1.046997,0.021729,-0.548781,1.951220,-2.743902
1549475637787,-0.011780,-1.047485,0.113281,-0.762195,1.493902,-2.926829
1549475637795,-0.001648,-1.032104,0.040405,0.167683,1.402439,-2.896342
1549475637802,-0.021729,-1.011536,-0.027039,1.570122,1.539634,-2.774390
1549475637817,-0.028687,-0.998535,0.002380,1.128049,1.539634,-2.896342
1549475637825,-0.006348,-0.997925,-0.008911,-0.594512,1.417683,-3.216464
1549475637833,-0.039856,-0.993958,-0.012024,-1.280488,1.493902,-3.338415
1549475637847,-0.070374,-1.025696,0.036438,-1.310976,1.585366,-3.445122
1549475637855,-0.039490,-1.038208,0.053711,-2.225610,1.600610,-3.887195
1549475637862,-0.013062,-1.020569,0.052002,-1.875000,1.768293,-3.734756
1549475637877,0.006714,-1.012451,0.060852,-1.204268,2.057927,-3.490854
1549475637885,0.018311,-0.993713,0.018005,-0.259146,2.134146,-3.307927
1549475637892,-0.021362,-0.988586,-0.018127,0.640244,2.042683,-2.621951
1549475637907,-0.041260,-0.992798,0.009155,-0.396341,1.661585,-2.606707
1549475637915,-0.019348,-0.992798,0.019104,-1.981707,1.021341,-2.759146
1549475637922,-0.017334,-1.006653,0.049988,-2.850610,0.716463,-2.408537
1549475637937,0.019958,-1.038574,0.065674,-2.652439,0.731707,-2.073171
1549475637945,0.038513,-0.995056,0.009277,-1.737805,0.655488,-1.402439
1549475637952,-0.022278,-0.991089,-0.015686,-0.853659,0.670732,-0.792683
1549475637967,-0.050781,-0.996277,0.027039,-0.792683,0.518293,-1.051829
1549475637975,-0.049866,-0.980957,0.009705,-1.158537,0.259146,-0.975610
1549475637989,-0.086731,-0.984924,0.046570,-1.463415,0.076220,-0.823171
1549475637997,-0.082336,-1.041199,0.130554,-1.067073,-0.304878,-0.823171
1549475638005,-0.030762,-1.030579,0.103882,-0.792683,-0.731707,-0.640244
1549475638012,-0.039612,-1.017578,0.085510,0.198171,-0.670732,0.060976
1549475638027,-0.030518,-1.024719,0.033447,1.402439,-0.594512,0.030488
1549475638035,0.013184,-1.002014,-0.008118,2.103659,-0.838415,-0.030488
1549475638042,0.037170,-1.010864,-0.015808,2.362805,-1.143293,-0.045732
1549475638057,0.031616,-1.011536,-0.002075,2.332317,-1.539634,-0.198171
1549475638065,0.003113,-1.028381,0.009705,2.149390,-1.890244,-0.396341
1549475638072,-0.035095,-1.019653,0.052612,1.341463,-2.378049,-0.731707
1549475638087,-0.056213,-1.043762,0.065186,1.448171,-2.469512,-1.189024
1549475638095,-0.043030,-1.017456,0.029297,2.286585,-2.347561,-1.310976
1549475638102,-0.003235,-1.002441,0.005920,2.134146,-2.210366,-1.219512
1549475638117,0.019653,-1.020325,0.013184,1.676829,-2.301829,-1.692073
1549475638125,0.027222,-1.041565,0.022034,1.935976,-2.637195,-1.966463
1549475638132,0.027405,-1.038391,0.020447,1.493902,-2.942073,-2.103659
1549475638147,-0.006836,-1.009460,0.024170,0.823171,-3.018293,-2.393293
1549475638155,-0.031616,-1.035767,0.062195,0.807927,-2.926829,-2.926829
1549475638162,-0.007141,-1.032349,0.079407,1.051829,-2.911585,-3.338415
1549475638177,0.005493,-1.003418,0.050659,1.234756,-2.682927,-3.277439
1549475638185,-0.012451,-1.004822,0.014771,1.219512,-2.423780,-3.323171
1549475638192,-0.001526,-1.016663,0.045166,1.371951,-2.179878,-3.414634
1549475638207,0.038696,-1.001892,0.044189,0.975610,-2.378049,-3.490854
1549475638215,0.034302,-1.008911,0.071289,0.533537,-2.850610,-3.262195
1549475638222,0.015442,-1.013977,0.044617,1.722561,-3.003049,-2.926829
1549475638237,-0.002136,-1.010620,0.007690,3.064024,-2.728659,-2.423780
1549475638245,0.011536,-1.014526,0.038269,2.698171,-2.621951,-2.606707
1549475638252,0.053650,-1.006897,0.018860,1.905488,-2.606707,-2.759146
1549475638267,0.064758,-1.011292,0.021179,1.737805,-2.759146,-2.545732
1549475638275,0.062866,-1.025085,0.035583,1.478659,-2.865854,-2.576220
1549475638282,0.055847,-1.001892,0.035156,1.280488,-2.957317,-2.500000
1549475638298,0.039246,-1.022095,0.051575,0.838415,-3.155488,-2.545732
1549475638305,0.022339,-1.015625,0.033569,0.396341,-3.429878,-2.652439
1549475638312,0.002441,-0.983826,0.001038,0.106707,-3.475610,-2.621951
1549475638327,-0.028687,-1.015869,0.011719,-0.655488,-3.506098,-3.094512
1549475638335,-0.026367,-1.016541,0.021790,-1.753049,-3.719512,-3.689024
1549475638342,0.011841,-0.987610,0.023804,-3.125000,-3.765244,-4.070122
1549475638357,0.040161,-1.056274,0.082764,-3.887195,-3.810976,-4.359756
1549475638365,0.087280,-1.053894,0.098022,-3.368902,-4.192073,-4.695122
1549475638372,0.077820,-0.981506,0.043945,-3.094512,-4.222561,-4.466464
1549475638388,0.011841,-1.009888,-0.003540,-2.179878,-3.826220,-4.451220
1549475638395,0.009521,-1.019043,-0.036438,-1.051829,-3.628049,-4.847561
1549475638409,0.034668,-0.976013,-0.044800,-2.515244,-3.963415,-5.274390
1549475638417,0.039246,-0.978760,-0.017883,-5.640244,-4.542683,-5.777439
1549475638425,0.060059,-1.012024,0.012817,-6.981708,-5.045732,-6.402439
1549475638432,0.090454,-1.031189,0.041626,-6.493903,-5.243903,-6.265244
1549475638447,0.136475,-1.024963,0.044617,-6.356708,-5.243903,-5.899390
1549475638462,0.168457,-0.970642,0.017700,-6.371952,-5.289634,-5.625000
1549475638469,0.133484,-1.010681,0.013855,-5.335366,-5.594512,-5.228659
1549475638477,0.103333,-1.071411,0.036499,-3.628049,-6.036585,-5.182927
1549475638485,0.147156,-1.043579,0.046692,-3.109756,-6.265244,-5.152439
1549475638492,0.198547,-0.968689,0.020569,-3.734756,-6.234756,-4.817073
1549475638514,0.158691,-0.973572,-0.013855,-2.576220,-6.097561,-4.039634
1549475638515,0.091736,-1.012817,-0.041443,-0.350610,-6.143293,-3.490854
1549475638522,0.072083,-1.005981,-0.047546,0.411585,-6.097561,-3.246951
1549475638537,0.105957,-0.991394,-0.050415,-0.518293,-5.701220,-3.048780
1549475638545,0.155090,-0.990356,-0.057800,-1.341463,-5.198171,-2.621951
1549475638552,0.197571,-0.993286,-0.052368,-1.067073,-4.832317,-1.722561
1549475638568,0.220764,-0.990234,-0.039490,0.167683,-4.512195,-0.762195
1549475638575,0.227661,-0.981812,-0.008362,1.875000,-3.978659,0.472561
1549475638582,0.235535,-0.978516,0.010742,4.314024,-3.246951,1.920732
1549475638605,0.225281,-0.998474,0.014893,7.637195,-2.210366,3.567073
1549475638612,0.203369,-0.998230,0.023560,10.731708,-0.899390,5.198171
1549475638627,0.200195,-1.004456,-0.003967,12.576220,0.487805,6.356708
1549475638634,0.197205,-1.001099,-0.016235,13.521341,1.692073,7.301829
1549475638635,0.186523,-1.009888,-0.000061,14.618903,2.530488,8.246951
1549475638642,0.168152,-1.032349,0.027588,15.518293,3.048780,9.100610
1549475638658,0.144836,-1.013184,0.052063,15.487805,3.109756,9.664635
1549475638665,0.117371,-0.986694,0.068726,14.832317,3.262195,10.030488
1549475638672,0.084106,-0.947205,0.072937,14.024390,3.689024,10.045732
1549475638687,0.040710,-0.887207,0.078308,13.231708,3.917683,9.756098
1549475638695,0.002686,-0.874329,0.082397,12.057927,4.375000,8.871951
1549475638702,-0.008484,-0.891724,0.088806,10.381098,5.076220,7.118903
1549475638717,0.020630,-0.885376,0.121643,8.521341,5.259147,5.365854
1549475638725,0.069458,-0.941101,0.125671,6.036585,5.228659,4.146341
1549475638732,0.081482,-0.907959,0.081787,2.088415,5.106708,3.597561
1549475638747,0.101624,-0.682617,0.209717,-1.631098,5.076220,3.719512
1549475638755,0.139465,-0.949280,0.227722,-2.865854,5.289634,3.658537
1549475638762,0.142639,-1.047241,0.139709,-6.097561,4.832317,2.987805
1549475638777,0.137085,-0.818604,0.179810,-8.094512,5.000000,4.451220
1549475638785,0.037720,-0.888000,0.188660,-4.512195,5.396342,5.868903
1549475638792,-0.071350,-0.987671,0.174805,0.289634,4.740854,4.695122
1549475638807,-0.105896,-1.029785,0.137146,3.902439,5.182927,4.222561
1549475638815,-0.097351,-1.060547,0.115967,5.015244,6.036585,4.603659
1549475638822,-0.058472,-1.113403,0.106201,5.625000,6.173780,4.024390
1549475638837,-0.037354,-1.168640,0.114197,7.515244,5.762195,3.612805
1549475638845,-0.041565,-1.212219,0.153625,10.701220,4.923780,4.893293
1549475638852,-0.071899,-1.256592,0.198303,14.435976,4.161585,6.875000
1549475638867,-0.135925,-1.286194,0.227356,17.667683,3.734756,8.734756
1549475638875,-0.187927,-1.345337,0.243774,19.054878,4.039634,10.213415
1549475638882,-0.182007,-1.422180,0.238770,18.185976,4.664634,11.280488
1549475638897,-0.138123,-1.469910,0.248169,16.112804,5.182927,12.515244
1549475638912,-0.099426,-1.468872,0.276794,14.298780,5.625000,14.664635
1549475638920,-0.084778,-1.445435,0.318054,14.085366,5.762195,17.576220
1549475638934,-0.099731,-1.440186,0.377319,15.884147,5.823171,20.823172
1549475638935,-0.149902,-1.467346,0.410034,19.039635,6.128049,24.161587
1549475638942,-0.191284,-1.485474,0.447205,21.448172,6.692073,27.362806
1549475638957,-0.202637,-1.463806,0.463196,21.600611,7.743903,30.121952
1549475638965,-0.199219,-1.438721,0.474365,19.329269,9.237805,32.576221
1549475638972,-0.172363,-1.408691,0.475342,15.945123,11.006098,34.390244
1549475638987,-0.152832,-1.322266,0.471008,13.323171,12.743903,36.402439
1549475638995,-0.162903,-1.242859,0.479797,11.905488,14.375000,38.628048
1549475639002,-0.174438,-1.203064,0.453857,11.356708,16.082317,39.984756
1549475639017,-0.185425,-1.191895,0.421936,10.929878,17.484756,41.097561
1549475639025,-0.190369,-1.186157,0.416504,9.603659,18.536585,42.378048
1549475639032,-0.195862,-1.145447,0.408569,7.012195,19.390244,43.521343
1549475639047,-0.240295,-1.071899,0.405945,3.292683,20.015244,44.756100
1549475639055,-0.290100,-0.994324,0.385193,-0.731707,20.579269,45.472561
1549475639062,-0.310669,-0.915039,0.342896,-3.414634,21.310976,45.746952
1549475639077,-0.324097,-0.851868,0.308350,-3.917683,22.027439,46.143295
1549475639085,-0.333923,-0.806335,0.273682,-2.728659,22.515244,46.310978
1549475639092,-0.348022,-0.775635,0.255371,-0.945122,22.759148,46.021343
1549475639107,-0.374817,-0.752808,0.243347,-0.030488,22.850611,45.411587
1549475639115,-0.396240,-0.722168,0.224304,-0.365854,22.957317,44.634148
1549475639122,-0.412964,-0.678162,0.203369,-0.929878,23.201220,44.039635
1549475639137,-0.442993,-0.623230,0.189941,-1.341463,23.338415,43.414635
1549475639145,-0.474365,-0.605469,0.189270,-2.149390,23.475611,42.439026
1549475639152,-0.474854,-0.598816,0.172852,-3.429878,23.780489,41.143295
1549475639167,-0.469360,-0.600647,0.167786,-4.603659,24.115854,40.228661
1549475639175,-0.467529,-0.616333,0.161133,-5.274390,24.268293,39.588417
1549475639182,-0.477112,-0.586792,0.146790,-5.609756,24.161587,38.978661
1549475639197,-0.494446,-0.538147,0.128540,-5.335366,24.131098,38.719513
1549475639205,-0.516174,-0.487305,0.098938,-4.131098,24.009148,38.445122
1549475639212,-0.548889,-0.426636,0.074890,-1.676829,23.567074,38.018295
1549475639227,-0.596008,-0.387390,0.053040,0.746951,22.957317,37.408539
1549475639235,-0.638672,-0.361328,0.006165,1.509146,22.469513,36.265244
1549475639242,-0.679321,-0.333618,0.001526,0.411585,22.179878,34.984756
1549475639257,-0.709351,-0.377808,0.010559,-1.600610,22.042683,33.704269
1549475639265,-0.711792,-0.405945,0.007019,-3.307927,21.935976,32.362804
1549475639272,-0.713135,-0.368530,-0.013428,-3.506098,22.134148,31.905489
1549475639287,-0.733398,-0.314026,-0.045654,-2.560976,22.271341,31.875000
1549475639295,-0.767273,-0.280029,-0.068481,-1.402439,22.027439,31.265245
1549475639302,-0.794128,-0.250854,-0.103760,0.076220,21.707317,30.198172
1549475639317,-0.824524,-0.212219,-0.125183,1.905488,21.250000,29.466465
1549475639325,-0.869446,-0.212036,-0.098267,3.506098,20.670732,28.902439
1549475639332,-0.903687,-0.281494,-0.058044,4.435976,20.121952,27.957317
1549475639347,-0.903320,-0.292847,-0.085144,5.274390,19.984756,26.996952
1549475639355,-0.912903,-0.216797,-0.105530,6.463415,20.182928,26.951220
1549475639362,-0.927063,-0.163208,-0.135620,7.576220,20.259148,27.057928
1549475639377,-0.939087,-0.132446,-0.147156,8.689025,20.335367,26.371952
1549475639385,-0.951355,-0.130493,-0.143677,11.371951,20.579269,25.548780
1549475639392,-0.950317,-0.117737,-0.181641,15.853659,20.868902,25.243902
1549475639407,-0.955627,-0.042358,-0.230103,21.326220,21.189024,25.304878
1549475639415,-0.963074,-0.000305,-0.266968,26.295732,21.509148,24.954269
1549475639422,-0.951843,0.018677,-0.338013,29.496952,21.768293,23.368902
1549475639437,-0.920532,0.026611,-0.390686,31.554878,21.844513,21.417683
1549475639445,-0.923157,0.073120,-0.529236,31.173780,22.042683,20.304878
1549475639452,-0.911621,0.016602,-0.547607,30.929878,21.524391,18.521341
1549475639467,-0.920166,-0.052734,-0.585327,30.792685,18.673780,14.847561
1549475639475,-0.909363,-0.057922,-0.658508,26.661587,17.286585,12.454268
1549475639482,-0.897766,0.015503,-0.732178,22.012196,15.564025,10.457317
1549475639497,-0.883057,0.085449,-0.796448,17.195122,12.835366,8.079268
1549475639505,-0.874268,0.109741,-0.837646,12.774390,9.817074,5.167683
1549475639512,-0.868469,0.081726,-0.834900,9.740854,6.661585,2.439024
1549475639527,-0.857605,0.044495,-0.780151,7.469512,3.170732,0.198171
1549475639535,-0.858704,0.004395,-0.701843,4.832317,-0.106707,-1.935976
1549475639542,-0.879883,-0.013977,-0.623596,1.402439,-3.094512,-4.329268
1549475639557,-0.892151,0.001770,-0.583374,-2.728659,-5.777439,-6.615854
1549475639565,-0.888428,-0.004150,-0.535461,-6.295732,-8.048780,-8.582317
1549475639572,-0.876648,-0.057800,-0.471191,-7.698171,-10.000000,-10.396341
1549475639587,-0.864929,-0.092529,-0.434143,-6.341464,-11.646341,-11.814025
1549475639595,-0.863403,-0.099121,-0.421692,-3.429878,-13.277439,-12.713415
1549475639602,-0.860291,-0.105774,-0.400391,-0.670732,-14.893293,-13.536586
1549475639617,-0.845459,-0.115234,-0.385193,0.807927,-16.234756,-14.618903
1549475639625,-0.839111,-0.161072,-0.344055,1.219512,-17.591463,-15.838415
1549475639632,-0.844666,-0.225586,-0.281677,0.838415,-19.085367,-17.027439
1549475639647,-0.839478,-0.257751,-0.252625,0.442073,-20.274391,-17.881098
1549475639655,-0.848694,-0.251465,-0.217529,0.609756,-21.021341,-18.597561
1549475639662,-0.842346,-0.256409,-0.205994,-1.402439,-22.347561,-18.780489
1549475639677,-0.824036,-0.246704,-0.212952,-3.048780,-23.185976,-19.527439
1549475639685,-0.811401,-0.235046,-0.218445,-3.917683,-23.856709,-20.411587
1549475639692,-0.798096,-0.234436,-0.228394,-4.695122,-24.786587,-21.295732
1549475639707,-0.788269,-0.239868,-0.232361,-5.457317,-25.807928,-22.423780
1549475639715,-0.781982,-0.273621,-0.182922,-6.432927,-27.012196,-23.734756
1549475639722,-0.776855,-0.371338,-0.070984,-8.109756,-28.307928,-25.228659
1549475639738,-0.754272,-0.462158,-0.014648,-9.603659,-29.253050,-26.585367
1549475639745,-0.743591,-0.430481,-0.010498,-8.597561,-29.527439,-26.951220
1549475639752,-0.762207,-0.377319,-0.022400,-5.685976,-29.893293,-26.539635
1549475639767,-0.771729,-0.365723,-0.040955,-2.606707,-30.320122,-26.996952
1549475639775,-0.756470,-0.352600,-0.068665,-0.548781,-30.670732,-28.246952
1549475639782,-0.734070,-0.346130,-0.080261,-0.076220,-31.173780,-29.298780
1549475639797,-0.711365,-0.387207,-0.043457,-1.250000,-31.951220,-30.365854
1549475639805,-0.696899,-0.487793,0.053345,-3.368902,-32.957317,-31.829269
1549475639812,-0.679565,-0.588440,0.143982,-5.289634,-33.780487,-33.094513
1549475639827,-0.662048,-0.612854,0.200745,-6.082317,-34.009148,-33.460365
1549475639835,-0.652100,-0.591797,0.201843,-5.899390,-33.765244,-33.262196
1549475639842,-0.644592,-0.544067,0.163147,-5.121951,-33.292683,-33.643295
1549475639857,-0.641235,-0.500427,0.118103,-4.435976,-32.774391,-34.710365
1549475639865,-0.633728,-0.492004,0.100708,-4.512195,-32.606709,-36.067074
1549475639872,-0.620728,-0.565186,0.183228,-5.640244,-32.865856,-37.652439
1549475639887,-0.593384,-0.725464,0.291260,-7.652439,-33.170731,-39.237804
1549475639895,-0.546082,-0.820984,0.403931,-9.390244,-33.079269,-39.756100
1549475639902,-0.512878,-0.859924,0.465088,-8.292683,-32.195122,-38.689026
1549475639917,-0.479614,-0.808472,0.436096,-3.551829,-31.067074,-37.530487
1549475639925,-0.456177,-0.741333,0.364807,3.094512,-29.710367,-36.463417
1549475639932,-0.456360,-0.750854,0.292664,8.307927,-28.826220,-36.234756
1549475639947,-0.468140,-0.790161,0.256165,9.923780,-29.146341,-37.164635
1549475639955,-0.472168,-0.851318,0.280640,6.631098,-29.939026,-38.109756
1549475639962,-0.475037,-0.951660,0.439575,-0.823171,-30.533537,-38.597561
1549475639977,-0.457336,-1.084229,0.595459,-9.283537,-30.716465,-38.856709
1549475639985,-0.385620,-1.022644,0.637146,-13.963415,-29.847561,-38.338417
1549475639993,-0.325439,-0.893066,0.603760,-11.265244,-27.332317,-35.564026
1549475640008,-0.317261,-0.901428,0.532532,-6.143293,-24.923780,-34.375000
1549475640016,-0.341003,-0.977051,0.455872,-2.545732,-23.323172,-35.396343
1549475640023,-0.373108,-1.039185,0.382141,-2.164634,-22.515244,-35.853661
1549475640037,-0.377502,-1.057190,0.327637,-6.006098,-22.439024,-35.685978
1549475640044,-0.357849,-1.051270,0.361938,-13.384147,-22.637196,-36.021343
1549475640052,-0.329529,-1.071228,0.471375,-21.768293,-22.865854,-36.737804
1549475640067,-0.238708,-1.123474,0.552429,-25.960367,-22.423780,-37.179878
1549475640075,-0.122070,-1.115479,0.563049,-22.591463,-20.731709,-35.746952
1549475640082,-0.073181,-1.109558,0.463379,-16.814024,-18.597561,-33.658539
1549475640097,-0.084167,-1.169922,0.363220,-16.478659,-17.286585,-33.963417
1549475640105,-0.102417,-1.207825,0.275513,-22.042683,-16.875000,-35.076221
1549475640112,-0.095703,-1.191650,0.235474,-30.670732,-16.707317,-34.786587
1549475640127,-0.067688,-1.156311,0.239380,-39.984756,-16.417683,-34.100609
1549475640135,-0.013489,-1.163940,0.264038,-46.798782,-16.082317,-34.283539
1549475640142,0.075867,-1.174927,0.274536,-46.981709,-15.106708,-34.039635
1549475640157,0.164551,-1.116516,0.265259,-38.719513,-13.734756,-31.996952
1549475640165,0.212219,-1.072083,0.239441,-25.579269,-12.804878,-29.131098
1549475640172,0.215332,-1.084778,0.214355,-12.896341,-12.393293,-27.576220
1549475640187,0.196045,-1.130310,0.200256,-3.246951,-12.164635,-26.692074
1549475640195,0.186279,-1.161072,0.189209,2.027439,-11.920732,-25.091463
1549475640202,0.212097,-1.153748,0.173523,2.317073,-11.707317,-23.246952
1549475640217,0.249878,-1.114685,0.152344,-0.868902,-11.432927,-22.057928
1549475640225,0.268188,-1.062561,0.124390,-4.969512,-11.356708,-21.173780
1549475640232,0.274353,-1.023193,0.100098,-8.673780,-11.554878,-20.350611
1549475640247,0.279358,-0.978699,0.076294,-11.478659,-11.829268,-19.771341
1549475640255,0.277405,-0.979248,0.076355,-13.521341,-12.164635,-19.481709
1549475640262,0.280518,-1.050842,0.108337,-15.091464,-12.652439,-19.435976
1549475640277,0.275635,-1.113525,0.142090,-15.640244,-12.789635,-19.466463
1549475640285,0.272949,-1.195129,0.155273,-14.146341,-12.515244,-18.429878
1549475640292,0.267273,-1.341187,0.183289,-11.219512,-12.103659,-16.204269
1549475640308,0.254456,-1.458984,0.252747,-7.286585,-11.524390,-13.689025
1549475640315,0.252014,-1.407104,0.280273,-2.195122,-9.893293,-9.588415
1549475640322,0.251465,-1.275635,0.258484,2.621951,-7.835366,-4.024390
1549475640345,0.277344,-1.119873,0.180420,5.426829,-5.884147,-0.442073
1549475640352,0.292480,-0.950195,0.069946,7.698171,-4.237805,0.533537
1549475640353,0.255371,-0.855042,0.014465,10.137196,-3.445122,0.853659
1549475640367,0.214355,-0.830261,-0.002319,10.960366,-3.399390,0.533537
1549475640375,0.200073,-0.849487,0.004944,9.603659,-3.521342,-0.564024
1549475640382,0.214905,-0.866577,0.014771,5.609756,-3.506098,-1.478659
1549475640397,0.237793,-0.875671,0.022461,0.884146,-3.353659,-2.179878
1549475640405,0.239868,-0.913940,0.046204,-2.804878,-3.231707,-3.033537
1549475640412,0.230652,-0.986084,0.079773,-4.466464,-3.125000,-3.734756
1549475640427,0.224731,-1.051514,0.099121,-4.298780,-2.850610,-3.689024
1549475640435,0.219543,-1.081360,0.112061,-3.567073,-2.423780,-2.804878
1549475640442,0.219666,-1.072754,0.113098,-2.972561,-1.875000,-1.585366
1549475640457,0.227539,-1.037109,0.090027,-2.240854,-1.219512,-0.442073
1549475640465,0.234802,-0.979309,0.056763,-0.579268,-0.609756,0.625000
1549475640472,0.236877,-0.950989,0.032104,1.768293,-0.381098,1.295732
1549475640487,0.237122,-0.955383,0.023499,3.734756,-0.442073,1.295732
1549475640495,0.234314,-0.968384,0.028076,4.603659,-0.533537,1.112805
1549475640502,0.235229,-0.979309,0.035522,3.948171,-0.625000,0.899390
1549475640517,0.231506,-0.985535,0.049561,2.408537,-0.594512,0.625000
1549475640525,0.228149,-0.989868,0.065979,1.234756,-0.533537,0.503049
1549475640532,0.222412,-1.003296,0.083313,0.990854,-0.426829,0.609756
1549475640547,0.220947,-1.010010,0.085815,1.463415,-0.213415,0.853659
1549475640555,0.214844,-1.012878,0.083191,2.149390,0.091463,1.112805
1549475640563,0.212646,-1.016357,0.075134,2.759146,0.518293,1.295732
1549475640577,0.209534,-1.022827,0.066284,3.384146,0.899390,1.402439
1549475640585,0.208557,-1.026184,0.066162,3.917683,1.204268,1.615854
1549475640592,0.212219,-1.026184,0.075073,4.070122,1.448171,1.844512
1549475640607,0.216858,-1.012268,0.080688,3.704268,1.753049,2.012195
1549475640615,0.218140,-0.991821,0.077637,2.972561,1.966463,2.225610
1549475640622,0.221985,-1.009216,0.089783,2.103659,2.149390,2.347561
1549475640637,0.239624,-1.041138,0.100708,1.585366,2.240854,2.454268
1549475640652,0.261902,-1.037720,0.108337,1.905488,2.393293,3.033537
1549475640659,0.269592,-1.028809,0.128601,2.743902,2.530488,4.024390
1549475640667,0.256165,-1.041748,0.140320,3.445122,2.652439,4.695122
1549475640675,0.247925,-1.039734,0.135925,3.780488,2.804878,5.350610
1549475640682,0.248718,-1.024658,0.124390,3.917683,3.246951,6.600610
1549475640697,0.248779,-1.023132,0.123169,4.222561,3.734756,7.896342
1549475640705,0.255432,-1.029053,0.126221,4.893293,3.963415,8.734756
1549475640712,0.261719,-1.036560,0.125916,5.823171,4.146341,9.481708
1549475640727,0.262878,-1.049988,0.143188,6.585366,4.268293,10.350610
1549475640735,0.261841,-1.057739,0.175476,7.149390,4.359756,11.265244
1549475640742,0.245667,-1.048462,0.195068,8.033537,4.634146,12.286586
1549475640757,0.216675,-1.054443,0.208862,9.176829,5.152439,13.460366
1549475640765,0.193970,-1.095520,0.216125,10.106708,5.762195,14.603659
1549475640772,0.176514,-1.142517,0.213196,10.868903,6.539634,15.792684
1549475640787,0.169006,-1.185059,0.216187,11.661586,7.256098,17.332317
1549475640795,0.161865,-1.203674,0.217468,11.905488,7.789634,18.978659
1549475640802,0.145264,-1.187195,0.216431,11.265244,8.170732,20.365854
1549475640817,0.118530,-1.173950,0.242126,10.609756,8.582317,21.570122
1549475640825,0.084351,-1.178650,0.276978,10.929878,8.841464,22.774391
1549475640832,0.052246,-1.194885,0.291992,11.966464,9.161586,23.932928
1549475640847,0.030762,-1.197021,0.292969,12.865854,9.679878,25.045732
1549475640855,0.002869,-1.187073,0.305298,13.490854,10.228659,26.280489
1549475640862,-0.028809,-1.183167,0.315369,14.268293,10.762196,27.439026
1549475640877,-0.062439,-1.194763,0.319580,15.335366,11.326220,28.445122
1549475640885,-0.097595,-1.208679,0.311279,15.823171,11.768293,29.390245
1549475640892,-0.131653,-1.204651,0.322083,15.289635,12.195122,30.274391
1549475640907,-0.163391,-1.198975,0.338867,14.527439,12.667684,31.112806
1549475640915,-0.183289,-1.180786,0.357971,14.542684,13.094513,31.996952
1549475640922,-0.200439,-1.177551,0.400635,15.914635,13.490854,33.140244
1549475640937,-0.208740,-1.202515,0.413574,17.804878,14.131098,34.329269
1549475640945,-0.217773,-1.192200,0.390076,19.176830,14.908537,35.609756
1549475640960,-0.255371,-1.178955,0.369446,19.649391,15.762196,37.103661
1549475640967,-0.297180,-1.167480,0.369934,18.673780,16.417683,37.987804
1549475640975,-0.323120,-1.144165,0.396545,16.859756,16.890244,38.612804
1549475640982,-0.327454,-1.103333,0.400879,14.878049,17.484756,39.405487
1549475640997,-0.336121,-1.054077,0.436951,13.445123,18.140244,40.289635
1549475641005,-0.354126,-1.037659,0.460571,13.155488,18.856709,40.884148
1549475641012,-0.362793,-1.004333,0.430725,13.795732,19.710367,41.448174
1549475641027,-0.388245,-0.968323,0.407715,15.243903,20.838415,42.256100
1549475641035,-0.422546,-0.925598,0.367188,15.929878,21.798780,42.545734
1549475641042,-0.446106,-0.860229,0.346008,15.396342,22.439024,42.439026
1549475641057,-0.472168,-0.847046,0.359009,13.917684,23.064026,42.073174
1549475641065,-0.484863,-0.851501,0.388855,11.920732,23.414635,41.402439
1549475641072,-0.472839,-0.820190,0.416931,10.365854,23.871952,40.975609
1549475641087,-0.455872,-0.769775,0.419434,9.039635,24.634148,40.823174
1549475641095,-0.449097,-0.706360,0.394348,8.185976,25.335367,40.457317
1549475641102,-0.465942,-0.665161,0.381592,8.506098,26.173780,40.121952
1549475641118,-0.498718,-0.648315,0.343079,9.283537,26.875000,39.359756
1549475641125,-0.531067,-0.608459,0.324951,9.801829,27.179878,38.734756
1549475641133,-0.549927,-0.604004,0.317017,10.442074,27.545732,38.445122
1549475641147,-0.553589,-0.562988,0.303223,11.143293,27.789635,37.804878
1549475641155,-0.567932,-0.528931,0.319397,12.210366,28.033537,37.317074
1549475641162,-0.590210,-0.543457,0.342041,12.957317,28.277439,36.417683
1549475641177,-0.600708,-0.526794,0.364990,13.384147,28.429878,35.457317
1549475641185,-0.615906,-0.500183,0.387817,14.375000,28.978659,35.137196
1549475641192,-0.633362,-0.457642,0.332520,15.503049,29.649391,34.954269
1549475641207,-0.653015,-0.372864,0.239197,16.310976,30.365854,34.420734
1549475641215,-0.682800,-0.325989,0.139893,16.631098,31.158537,33.414635
1549475641222,-0.709167,-0.310791,0.105713,15.213415,31.082317,31.996952
1549475641237,-0.723694,-0.334229,0.114563,12.896341,30.365854,30.670732
1549475641245,-0.725952,-0.312988,0.074219,11.128049,29.466465,29.756098
1549475641252,-0.734802,-0.219421,0.034546,10.518293,28.841465,29.253050
1549475641267,-0.765686,-0.162598,0.012756,9.603659,28.155489,27.713415
1549475641275,-0.789185,-0.116699,-0.030029,7.789634,27.057928,25.182928
1549475641282,-0.810547,-0.066406,-0.023621,6.646342,26.250000,23.414635
1549475641297,-0.828796,-0.105591,-0.005554,5.929878,25.182928,22.103659
1549475641305,-0.830383,-0.160034,0.046814,6.600610,23.902439,19.969513
1549475641312,-0.841492,-0.189453,0.072266,7.835366,22.881098,18.658537
1549475641328,-0.857666,-0.157837,0.019714,9.939025,22.225611,17.942074
1549475641335,-0.872009,-0.087341,-0.083496,12.332317,22.134148,17.118902
1549475641342,-0.877197,-0.062195,-0.171509,13.810976,21.859756,15.670732
1549475641357,-0.872620,-0.059692,-0.208496,13.887196,20.823172,13.917684
1549475641365,-0.876160,-0.097778,-0.136353,13.612805,19.466463,12.667684
1549475641372,-0.894592,-0.183472,-0.078308,14.100610,17.835367,11.890244
1549475641387,-0.922241,-0.220032,0.013123,15.746952,16.478659,11.493903
1549475641395,-0.964355,-0.252380,0.041809,17.545732,15.990854,11.112805
1549475641409,-0.986328,-0.201233,0.000305,18.414635,15.868903,10.640244
1549475641417,-0.985168,-0.143799,-0.080444,19.283537,16.432928,10.533537
1549475641425,-0.967896,-0.092773,-0.181946,20.259148,16.951220,10.518293
1549475641432,-0.947449,-0.082825,-0.268982,21.554878,16.798780,10.533537
1549475641447,-0.938904,-0.140137,-0.303955,22.454269,16.021341,10.137196
1549475641455,-0.958801,-0.195496,-0.266052,21.798780,14.573171,9.344512
1549475641462,-0.987488,-0.219299,-0.191040,18.490854,12.743903,8.536586
1549475641477,-1.006714,-0.222900,-0.107483,14.283537,11.326220,7.774390
1549475641485,-1.017395,-0.246521,-0.051392,11.737805,10.609756,7.317073
1549475641492,-1.028198,-0.235168,-0.053040,12.240854,10.350610,7.317073
1549475641514,-1.033142,-0.188904,-0.137329,15.609756,10.746951,7.942073
1549475641515,-1.014771,-0.160217,-0.257141,19.679878,11.707317,8.704268
1549475641522,-0.985229,-0.154724,-0.369141,22.439024,12.286586,9.176829
1549475641537,-0.965759,-0.168274,-0.426819,22.545732,11.753049,9.344512
1549475641545,-0.967896,-0.185669,-0.430115,20.121952,10.350610,9.085366
1549475641552,-0.978638,-0.185974,-0.415771,15.579268,8.582317,8.536586
1549475641567,-0.989136,-0.160156,-0.389465,9.939025,6.646342,7.393293
1549475641575,-0.991943,-0.136902,-0.347534,4.375000,4.878049,6.051829
1549475641582,-0.985779,-0.104858,-0.337341,-0.228659,3.445122,4.923780
1549475641597,-0.973633,-0.039246,-0.361023,-2.911585,2.042683,3.902439
1549475641605,-0.955750,-0.005188,-0.388672,-4.390244,0.929878,2.942073
1549475641612,-0.945129,-0.011292,-0.381531,-4.939024,-0.259146,1.646341
1549475641628,-0.939514,-0.032410,-0.366455,-4.207317,-1.814024,0.381098
1549475641635,-0.935791,-0.043579,-0.363403,-2.804878,-3.368902,-0.625000
1549475641642,-0.930786,-0.051208,-0.354187,-2.042683,-4.817073,-1.753049
1549475641657,-0.932800,-0.061707,-0.319336,-2.362805,-6.280488,-3.140244
1549475641665,-0.937500,-0.079590,-0.292175,-3.384146,-7.774390,-4.451220
1549475641672,-0.935913,-0.084473,-0.282349,-4.420732,-9.115854,-5.426829
1549475641687,-0.931824,-0.077576,-0.286560,-5.137195,-10.243902,-6.219512
1549475641695,-0.926514,-0.073792,-0.302490,-5.746952,-11.387196,-6.981708
1549475641702,-0.927185,-0.086121,-0.290833,-6.661585,-12.667684,-7.911585
1549475641717,-0.933838,-0.115845,-0.235901,-7.911585,-14.115854,-8.826220
1549475641725,-0.944275,-0.142212,-0.193970,-9.070122,-15.640244,-9.496951
1549475641732,-0.948792,-0.139404,-0.169922,-9.679878,-16.905489,-9.878049
1549475641747,-0.943970,-0.135376,-0.153503,-9.695122,-17.759148,-10.076220
1549475641755,-0.939148,-0.128052,-0.161804,-9.451220,-18.536585,-10.548780
1549475641762,-0.933228,-0.118958,-0.179810,-8.810976,-19.283537,-11.036586
1549475641777,-0.924072,-0.126404,-0.197815,-7.743903,-20.106709,-11.387196
1549475641785,-0.912842,-0.142700,-0.202759,-6.890244,-21.112806,-11.737805
1549475641792,-0.900085,-0.161316,-0.194031,-6.920732,-22.347561,-12.317074
1549475641807,-0.891968,-0.190369,-0.161682,-7.972561,-23.719513,-13.185976
1549475641815,-0.888245,-0.223755,-0.094055,-9.512196,-25.045732,-14.207317
1549475641822,-0.884033,-0.237732,-0.038574,-10.746951,-26.280489,-15.137196
1549475641837,-0.888672,-0.235840,0.007935,-10.868903,-27.134148,-15.746952
1549475641845,-0.893860,-0.244934,0.026917,-9.405488,-27.637196,-16.265244
1549475641852,-0.892578,-0.237732,0.025818,-6.661585,-27.972561,-16.707317
1549475641867,-0.882141,-0.239746,0.011108,-3.856707,-28.231709,-16.935976
1549475641875,-0.866577,-0.246033,-0.014587,-2.057927,-28.750000,-17.271341
1549475641882,-0.848083,-0.268127,-0.031677,-1.371951,-29.512196,-17.835367
1549475641898,-0.833740,-0.304199,-0.014038,-1.814024,-30.487806,-18.612804
1549475641905,-0.823425,-0.341003,0.088806,-3.551829,-31.798780,-19.481709
1549475641912,-0.814087,-0.402832,0.257812,-5.716464,-33.125000,-20.152439
1549475641927,-0.797058,-0.471191,0.429749,-6.204268,-34.024391,-20.564024
1549475641935,-0.804321,-0.479431,0.516479,-3.094512,-34.146343,-20.152439
1549475641942,-0.813416,-0.432434,0.499268,2.652439,-33.384148,-18.948172
1549475641957,-0.796631,-0.397278,0.423157,7.743903,-31.539635,-18.033537
1549475641965,-0.757263,-0.390198,0.313171,10.335366,-29.634148,-18.094513
1549475641972,-0.709229,-0.419373,0.233887,10.823171,-29.253050,-18.445122
1549475641987,-0.684265,-0.487549,0.215210,9.588415,-30.045732,-18.445122
1549475641995,-0.686707,-0.532532,0.235962,5.807927,-31.448172,-18.185976
1549475642002,-0.696167,-0.510254,0.296204,-1.509146,-33.140244,-18.262196
1549475642017,-0.698914,-0.457703,0.421509,-10.564025,-34.573170,-18.826220
1549475642025,-0.687256,-0.469971,0.577820,-16.920732,-35.487804,-19.756098
1549475642032,-0.667786,-0.477539,0.652405,-16.707317,-35.823170,-20.259148
1549475642047,-0.623047,-0.404419,0.608582,-10.792684,-34.786587,-20.030489
1549475642055,-0.583069,-0.381531,0.510193,-3.704268,-32.027439,-20.472561
1549475642062,-0.585083,-0.416687,0.428894,1.204268,-30.701220,-22.103659
1549475642077,-0.587036,-0.478394,0.400574,3.826220,-31.585367,-23.597561
1549475642085,-0.563171,-0.531067,0.402771,3.826220,-32.530487,-23.902439
1549475642092,-0.536926,-0.532837,0.440979,1.280488,-33.521343,-23.871952
1549475642107,-0.518982,-0.520996,0.509766,-2.469512,-35.015244,-24.283537
1549475642115,-0.502502,-0.516418,0.590149,-4.176829,-36.310978,-24.725611
1549475642122,-0.480225,-0.532593,0.695129,-1.798781,-36.646343,-24.847561
1549475642137,-0.455933,-0.582397,0.764465,3.185976,-36.387196,-24.847561
1549475642145,-0.417908,-0.614075,0.763550,8.750000,-35.777439,-24.817074
1549475642152,-0.382568,-0.635315,0.716125,12.896341,-34.451221,-24.542683
1549475642167,-0.378296,-0.713501,0.687073,14.573171,-32.911587,-24.283537
1549475642175,-0.387085,-0.763794,0.711670,12.042684,-32.667683,-23.932928
1549475642182,-0.402466,-0.717957,0.776733,4.756098,-34.344513,-23.064026
1549475642197,-0.385803,-0.676880,0.805298,-1.615854,-35.564026,-21.935976
1549475642205,-0.343262,-0.653137,0.799072,-3.963415,-35.579269,-21.250000
1549475642212,-0.319519,-0.654358,0.789978,-2.164634,-34.603661,-21.051830
1549475642227,-0.296021,-0.688477,0.746033,0.365854,-34.283539,-20.884148
1549475642235,-0.263306,-0.753235,0.695312,2.210366,-34.192074,-20.625000
1549475642242,-0.228210,-0.798157,0.725647,0.945122,-34.253048,-20.457317
1549475642264,-0.195557,-0.776062,0.876343,-3.917683,-35.259148,-20.625000
1549475642265,-0.143433,-0.767273,0.983459,-9.359756,-36.631100,-20.350611
1549475642272,-0.057861,-0.748535,0.992798,-10.060976,-36.021343,-19.268293
1549475642287,-0.004211,-0.756714,0.967957,-6.250000,-33.185978,-18.429878
1549475642295,0.002197,-0.816772,0.922607,-1.951220,-31.189026,-18.185976
1549475642302,0.001648,-0.880554,0.852112,0.884146,-30.000000,-18.155489
1549475642317,0.018005,-0.912109,0.802490,0.564024,-28.658537,-17.682928
1549475642325,0.050598,-0.890869,0.825134,-3.307927,-28.155489,-16.585365
1549475642332,0.078796,-0.845642,0.918030,-8.536586,-28.551830,-15.731708
1549475642347,0.104736,-0.793396,0.984619,-12.134147,-28.490854,-14.954268
1549475642355,0.130066,-0.755676,0.973267,-11.829268,-26.966463,-13.750000
1549475642370,0.148865,-0.769470,0.931396,-7.439024,-24.451220,-12.179878
1549475642377,0.149658,-0.809509,0.883911,-2.347561,-22.286587,-10.960366
1549475642392,0.147522,-0.847473,0.835632,0.548781,-20.625000,-10.762196
1549475642393,0.151611,-0.841309,0.802063,0.548781,-19.283537,-10.304878
1549475642407,0.160950,-0.815674,0.797302,-1.234756,-18.490854,-9.496951
1549475642422,0.168457,-0.795105,0.809021,-3.246951,-18.033537,-8.871951
1549475642423,0.167114,-0.766235,0.796570,-4.512195,-17.530489,-8.338415
1549475642437,0.161743,-0.739075,0.768005,-5.137195,-16.783537,-7.926829
1549475642445,0.153687,-0.724365,0.742310,-5.304878,-16.036585,-7.835366
1549475642452,0.154480,-0.719299,0.707703,-4.939024,-15.533537,-7.850610
1549475642468,0.157288,-0.737061,0.703613,-4.375000,-14.954268,-7.743903
1549475642475,0.147095,-0.803345,0.809570,-4.054878,-14.329268,-7.698171
1549475642482,0.118408,-0.829163,0.984863,-3.628049,-13.810976,-7.317073
1549475642498,0.102722,-0.955627,1.099243,-1.310976,-12.469513,-5.823171
1549475642505,0.107727,-1.110962,1.136047,4.603659,-9.039635,-3.810976
1549475642512,0.112976,-1.102722,1.111511,9.862805,-4.878049,-0.990854
1549475642527,0.105347,-0.989258,1.042114,8.445122,-2.591464,1.631098
1549475642535,0.089600,-0.863220,0.938599,2.804878,-0.945122,2.134146
1549475642542,0.076660,-0.770996,0.822632,-1.798781,0.320122,1.448171
1549475642557,0.087158,-0.690430,0.719971,-3.429878,1.310976,1.722561
1549475642565,0.097717,-0.641846,0.630249,-3.307927,1.966463,1.783537
1549475642579,0.100342,-0.635132,0.595886,-3.673781,1.524390,0.152439
1549475642587,0.104675,-0.639038,0.590881,-4.603659,0.152439,-1.143293
1549475642595,0.121582,-0.652405,0.604431,-5.457317,-1.112805,-1.783537
1549475642602,0.140930,-0.671692,0.630493,-5.975610,-2.073171,-2.347561
1549475642617,0.146912,-0.689758,0.665955,-5.731708,-2.911585,-2.591464
1549475642625,0.144043,-0.714905,0.697510,-4.756098,-3.338415,-2.500000
1549475642632,0.144592,-0.750549,0.725708,-3.262195,-3.338415,-2.195122
1549475642647,0.150085,-0.779480,0.745544,-1.798781,-3.033537,-1.707317
1549475642655,0.158020,-0.782349,0.756409,-0.670732,-2.576220,-1.097561
1549475642662,0.163879,-0.767151,0.755676,0.030488,-2.103659,-0.457317
1549475642684,0.168030,-0.754578,0.744568,0.243902,-1.646341,-0.091463
1549475642685,0.171875,-0.735779,0.721802,0.106707,-1.128049,0.000000
1549475642700,0.171875,-0.716492,0.691284,-0.076220,-0.625000,0.076220
1549475642707,0.173645,-0.716431,0.675659,-0.198171,-0.350610,-0.015244
1549475642715,0.175964,-0.725952,0.668945,-0.320122,-0.243902,-0.243902
1549475642722,0.182068,-0.735229,0.664978,-0.426829,-0.213415,-0.320122
1549475642737,0.185547,-0.743164,0.668579,-0.685976,-0.259146,-0.335366
1549475642745,0.179504,-0.749451,0.677368,-1.021341,-0.396341,-0.396341
1549475642752,0.171509,-0.752014,0.687439,-1.173781,-0.518293,-0.381098
1549475642767,0.162415,-0.761597,0.701660,-1.067073,-0.594512,-0.335366
1549475642775,0.158264,-0.766541,0.709778,-0.762195,-0.594512,-0.289634
1549475642782,0.157715,-0.768677,0.708801,-0.396341,-0.487805,-0.121951
1549475642797,0.159302,-0.768311,0.704590,-0.304878,-0.289634,0.015244
1549475642805,0.160645,-0.758057,0.700562,-0.182927,-0.121951,0.106707
1549475642812,0.162659,-0.746155,0.694946,-0.076220,0.015244,0.289634
1549475642827,0.164490,-0.740967,0.690002,-0.106707,0.182927,0.381098
1549475642835,0.164856,-0.744263,0.690063,-0.228659,0.365854,0.335366
1549475642842,0.162292,-0.746460,0.687256,-0.304878,0.487805,0.304878
1549475642857,0.161194,-0.755676,0.695129,-0.381098,0.655488,0.335366
1549475642865,0.164673,-0.758118,0.712585,-0.609756,0.899390,0.335366
1549475642872,0.163940,-0.761536,0.737000,-0.945122,1.082317,0.426829
1549475642887,0.159302,-0.775146,0.770386,-1.234756,1.387195,0.579268
1549475642895,0.150208,-0.786804,0.804321,-1.432927,1.875000,0.823171
1549475642910,0.139709,-0.799927,0.827515,-0.853659,2.652439,1.265244
1549475642917,0.135010,-0.811401,0.831665,0.091463,3.841464,1.798781
1549475642925,0.142700,-0.824036,0.824890,1.204268,5.106708,2.423780
1549475642932,0.160706,-0.822571,0.808411,2.545732,6.356708,3.170732
1549475642947,0.177551,-0.810730,0.784241,3.795732,7.667683,4.176829
1549475642955,0.184509,-0.796753,0.764526,4.451220,8.765244,5.213415
1549475642962,0.187561,-0.783508,0.760559,4.832317,9.375000,5.899390
1549475642977,0.195312,-0.785645,0.772034,5.655488,9.786586,6.402439
1549475642992,0.194580,-0.817566,0.783691,6.829268,10.289635,7.149390
1549475642993,0.162048,-0.808533,0.795410,7.987805,10.807927,8.201220
1549475643015,0.135498,-0.771729,0.812866,9.314025,11.585366,9.405488
1549475643022,0.120544,-0.783936,0.843994,10.914635,12.820123,10.198171
1549475643030,0.102356,-0.809387,0.872314,13.750000,13.734756,10.807927
1549475643037,0.080261,-0.841919,0.902527,18.810976,14.908537,11.798780
1549475643045,0.044434,-0.866089,0.942322,23.003050,16.326220,12.896341
1549475643052,0.004639,-0.876770,0.988037,23.978659,17.332317,13.506098
1549475643067,-0.018433,-0.862305,1.034302,22.042683,18.231709,13.963415
1549475643075,-0.022278,-0.835205,1.049316,19.192074,19.603659,14.801829
1549475643082,-0.031128,-0.808289,1.026855,16.905489,21.402439,15.548780
1549475643097,-0.053040,-0.793762,1.008911,15.594513,23.429878,15.792684
1549475643112,-0.088135,-0.785034,1.015503,15.015244,24.954269,16.051830
1549475643119,-0.100464,-0.775085,1.023438,14.832317,26.067074,16.524391
1549475643127,-0.114136,-0.748901,1.009155,14.893293,27.545732,17.057928
1549475643135,-0.131531,-0.727295,0.997925,16.051830,29.862806,17.621952
1549475643142,-0.168701,-0.716492,1.017639,14.893293,30.137196,17.972561
1549475643157,-0.206970,-0.700195,1.035767,13.765244,30.350611,18.246952
1549475643165,-0.222168,-0.679321,1.030823,13.445123,31.341465,18.551830
1549475643172,-0.227539,-0.664856,0.995117,13.445123,32.637196,18.719513
1549475643194,-0.241699,-0.655029,0.956848,13.140244,33.734756,18.750000
1549475643195,-0.263855,-0.634827,0.936340,12.012196,34.542683,18.719513
1549475643202,-0.285522,-0.619446,0.940491,10.198171,35.060978,18.628050
1549475643217,-0.304199,-0.597229,0.928528,8.673780,35.381100,18.475611
1549475643225,-0.314941,-0.577271,0.879028,7.911585,35.899391,18.506098
1549475643233,-0.331177,-0.570068,0.844543,7.469512,36.829269,18.368902
1549475643247,-0.358276,-0.553345,0.837769,6.554878,37.225609,17.926830
1549475643255,-0.365417,-0.514526,0.839417,4.969512,37.027439,17.713415
1549475643262,-0.371155,-0.496277,0.833374,4.207317,37.240856,17.652439
1549475643277,-0.380798,-0.467773,0.873169,4.801829,37.667683,17.408537
1549475643285,-0.398376,-0.439270,0.901733,6.600610,38.109756,17.179878
1549475643292,-0.406372,-0.423340,0.840088,9.862805,38.582317,17.271341
1549475643307,-0.417236,-0.436096,0.781067,14.573171,40.121952,17.179878
1549475643315,-0.453125,-0.453979,0.767578,17.682928,41.265244,16.478659
1549475643322,-0.477295,-0.452942,0.781982,17.774391,40.960365,15.762196
1549475643337,-0.485840,-0.457031,0.780029,16.204269,40.914635,15.396342
1549475643345,-0.493713,-0.447144,0.710571,13.887196,41.417683,15.015244
1549475643352,-0.509277,-0.415039,0.651184,10.548780,41.996952,14.268293
1549475643367,-0.547302,-0.400513,0.590759,5.929878,41.935978,13.262196
1549475643375,-0.557129,-0.356384,0.559875,0.945122,41.326221,12.728659
1549475643382,-0.575012,-0.323792,0.573242,-3.475610,41.021343,12.378049
1549475643397,-0.602112,-0.309570,0.577637,-6.524390,39.710365,12.301829
1549475643405,-0.608459,-0.294983,0.570068,-6.661585,39.100609,12.362805
1549475643412,-0.624756,-0.286194,0.553345,-4.878049,39.268295,12.317074
1549475643427,-0.643250,-0.267090,0.550293,-2.317073,38.871952,12.515244
1549475643435,-0.662781,-0.272888,0.518188,0.640244,38.856709,12.530488
1549475643442,-0.677612,-0.288025,0.471558,3.262195,39.039635,12.393293
1549475643457,-0.686462,-0.303711,0.466431,5.320122,39.161587,12.408537
1549475643465,-0.704895,-0.316711,0.442261,6.722561,38.826221,12.393293
1549475643472,-0.707214,-0.287415,0.369263,7.774390,38.307926,12.621951
1549475643487,-0.709717,-0.262451,0.310242,8.536586,38.795734,12.698171
1549475643495,-0.738342,-0.245056,0.285522,8.140244,38.536587,12.484756
1549475643503,-0.769897,-0.232666,0.230957,7.423780,37.347561,12.057927
1549475643517,-0.778503,-0.234680,0.151306,7.073171,36.951221,11.615854
1549475643525,-0.786743,-0.214172,0.112061,5.929878,36.707317,11.067074
1549475643532,-0.811157,-0.194641,0.095215,3.506098,35.381100,10.426829
1549475643547,-0.837524,-0.203186,0.094116,0.640244,33.902439,9.496951
1549475643555,-0.859375,-0.205505,0.064453,-1.600610,32.469513,8.460366
1549475643562,-0.854919,-0.182800,0.083984,-4.115854,31.341465,8.612805
1549475643577,-0.875610,-0.187073,0.131714,-5.381098,30.548780,8.185976
1549475643585,-0.896240,-0.171814,0.109497,-5.350610,28.734756,7.850610
1549475643592,-0.885925,-0.132385,0.085876,-3.003049,28.353659,7.850610
1549475643614,-0.888489,-0.129150,0.080872,0.685976,28.750000,7.591464
1549475643615,-0.898315,-0.114441,0.056213,4.253049,27.942074,7.408537
1549475643622,-0.899048,-0.101807,0.030151,8.155488,27.530489,7.271342
1549475643637,-0.900391,-0.141296,0.001587,11.570122,27.545732,6.966464
1549475643645,-0.898621,-0.193237,-0.052856,13.216464,26.844513,6.493903
1549475643652,-0.890930,-0.225464,-0.111877,12.865854,26.280489,5.975610
1549475643667,-0.899658,-0.227539,-0.205261,11.204268,25.807928,5.548780
1549475643675,-0.905884,-0.189392,-0.345276,8.658537,25.655489,5.518293
1549475643682,-0.900574,-0.153137,-0.376648,6.082317,22.957317,5.472561
1549475643697,-0.911682,-0.144165,-0.412292,4.664634,19.771341,5.472561
1549475643705,-0.932983,-0.133606,-0.438965,4.527439,17.393293,5.396342
1549475643712,-0.945801,-0.126587,-0.450073,4.237805,14.786586,5.274390
1549475643727,-0.948059,-0.141418,-0.443481,2.789634,12.347561,5.045732
1549475643735,-0.949829,-0.166321,-0.448853,1.036585,10.152439,4.268293
1549475643743,-0.949890,-0.167786,-0.463501,-0.106707,7.972561,3.643293
1549475643757,-0.949829,-0.153320,-0.479919,-0.762195,5.807927,3.323171
1549475643765,-0.955322,-0.135193,-0.472412,-1.189024,3.704268,2.789634
1549475643772,-0.966003,-0.121094,-0.436584,-1.234756,1.524390,2.027439
1549475643787,-0.989441,-0.109741,-0.364258,-1.326220,-0.518293,1.310976
1549475643795,-1.005676,-0.116577,-0.290100,-1.631098,-2.240854,0.609756
1549475643803,-1.014221,-0.113525,-0.240906,-1.661585,-3.521342,-0.152439
1549475643817,-1.015808,-0.091980,-0.226135,-1.189024,-4.420732,-0.731707
1549475643825,-1.009583,-0.074341,-0.227783,-0.487805,-5.030488,-1.189024
1549475643832,-1.005859,-0.079041,-0.223633,0.274390,-5.518293,-1.783537
1549475643847,-1.002014,-0.091736,-0.218811,0.960366,-6.112805,-2.500000
1549475643855,-0.995178,-0.100830,-0.206726,1.097561,-6.768293,-3.140244
1549475643862,-0.991211,-0.113647,-0.204346,0.396341,-7.423780,-3.795732
1549475643877,-0.989746,-0.118286,-0.208984,-0.945122,-8.155488,-4.557927
1549475643885,-0.985596,-0.111145,-0.223938,-2.759146,-8.917684,-5.304878
1549475643892,-0.978210,-0.119019,-0.232666,-4.862805,-9.756098,-6.067073
1549475643907,-0.968506,-0.134277,-0.232788,-7.073171,-10.731708,-6.935976
1549475643915,-0.962952,-0.153687,-0.207886,-9.588415,-11.768293,-7.942073
1549475643929,-0.962830,-0.162964,-0.182312,-12.439025,-12.881098,-8.963415
1549475643937,-0.962952,-0.151611,-0.164185,-15.030488,-13.993903,-9.893293
1549475643945,-0.955200,-0.152649,-0.141602,-16.859756,-14.923780,-10.762196
1549475643952,-0.949951,-0.169861,-0.099731,-18.292683,-15.716464,-11.722561
1549475643967,-0.955627,-0.185303,-0.083557,-19.344513,-16.524391,-12.774390
1549475643975,-0.950684,-0.181152,-0.093994,-19.451220,-17.210367,-13.536586
1549475643982,-0.936829,-0.174927,-0.119446,-18.429878,-17.576220,-13.887196
1549475643997,-0.919434,-0.173462,-0.155640,-17.103659,-18.048780,-14.314025
1549475644005,-0.901428,-0.170227,-0.177979,-15.990854,-18.887196,-15.152439
1549475644012,-0.888672,-0.176147,-0.178528,-15.000000,-20.045732,-16.158537
1549475644027,-0.878662,-0.191406,-0.164307,-13.963415,-21.478659,-17.088415
1549475644035,-0.865540,-0.226013,-0.113831,-13.018293,-22.987806,-18.018293
1549475644042,-0.849365,-0.264648,-0.083191,-12.378049,-24.435976,-19.100611
1549475644057,-0.830383,-0.267334,-0.079773,-12.347561,-25.731709,-20.167683
1549475644065,-0.814697,-0.250916,-0.088928,-12.942074,-26.890245,-21.097561
1549475644073,-0.795227,-0.241760,-0.102295,-14.176829,-28.125000,-22.347561
1549475644087,-0.768982,-0.218018,-0.110291,-15.472561,-29.542685,-23.902439
1549475644095,-0.738037,-0.182556,-0.101562,-16.189024,-31.082317,-25.411587
1549475644102,-0.705750,-0.165222,-0.029236,-15.411586,-32.759148,-26.935976
1549475644117,-0.674744,-0.196655,0.101685,-12.057927,-34.512196,-28.536587
1549475644125,-0.642822,-0.290833,0.239563,-6.006098,-36.158539,-29.832317
1549475644132,-0.645752,-0.347473,0.388000,1.996951,-37.271343,-30.304878
1549475644147,-0.667053,-0.416382,0.475281,9.390244,-37.515244,-30.091465
1549475644155,-0.668335,-0.494324,0.419922,13.795732,-37.164635,-29.832317
1549475644162,-0.637207,-0.510925,0.281372,15.121951,-36.326221,-29.451220
1549475644177,-0.592773,-0.544556,0.210571,13.262196,-35.945122,-28.719513
1549475644185,-0.555847,-0.637573,0.261658,9.329268,-37.271343,-28.246952
1549475644192,-0.510681,-0.726074,0.374207,5.198171,-39.146343,-27.591465
1549475644207,-0.489319,-0.752747,0.549866,1.143293,-39.984756,-25.762196
1549475644215,-0.494507,-0.762634,0.654724,-1.859756,-40.411587,-24.115854
1549475644222,-0.503845,-0.698792,0.661865,-3.231707,-40.609756,-23.246952
1549475644237,-0.511292,-0.635559,0.601624,0.030488,-39.207317,-22.408537
1549475644245,-0.533325,-0.628784,0.592163,5.533537,-37.652439,-21.935976
1549475644252,-0.551575,-0.670166,0.592590,9.009147,-37.439026,-21.829269
1549475644267,-0.518860,-0.766479,0.593323,7.804878,-37.774391,-21.692074
1549475644275,-0.465515,-0.795044,0.684448,1.859756,-38.155487,-21.493902
1549475644282,-0.410217,-0.756836,0.743896,-4.314024,-39.054878,-20.838415
1549475644297,-0.363831,-0.652405,0.771667,-6.814024,-39.054878,-20.274391
1549475644305,-0.357727,-0.608276,0.785278,-2.454268,-37.560978,-20.198172
1549475644312,-0.368591,-0.630981,0.769531,6.128049,-36.539635,-20.121952
1549475644327,-0.364807,-0.719543,0.723267,16.402439,-35.289635,-19.405489
1549475644335,-0.363342,-0.815979,0.680786,23.582317,-34.146343,-17.820122
1549475644342,-0.358032,-0.835632,0.714172,23.246952,-34.237804,-16.265244
1549475644357,-0.353088,-0.763794,0.853821,15.487805,-35.228661,-15.594513
1549475644365,-0.336853,-0.710938,0.947144,5.091464,-36.661587,-15.533537
1549475644373,-0.280334,-0.683716,0.950684,-1.082317,-36.219513,-15.899390
1549475644387,-0.248352,-0.670776,0.903259,-0.076220,-33.567074,-15.945123
1549475644395,-0.238831,-0.691956,0.827209,4.405488,-31.814026,-15.137196
1549475644402,-0.221680,-0.756897,0.750854,8.826220,-30.594513,-14.405488
1549475644417,-0.200195,-0.808838,0.723206,9.649390,-30.152439,-13.841464
1549475644425,-0.181946,-0.817444,0.783508,5.411585,-30.975611,-13.231708
1549475644432,-0.146912,-0.787476,0.870117,-1.798781,-32.454269,-12.713415
1549475644447,-0.106995,-0.732666,0.961060,-8.140244,-32.759148,-12.500000
1549475644455,-0.088623,-0.686890,1.020569,-11.189025,-31.981709,-12.454268
1549475644462,-0.088196,-0.652649,1.024109,-9.176829,-30.259148,-12.317074
1549475644477,-0.085083,-0.619385,1.023193,-1.631098,-25.777439,-11.707317
1549475644485,-0.064392,-0.728455,0.963867,3.262195,-25.045732,-10.487805
1549475644492,-0.036316,-0.819580,0.863098,3.429878,-24.771341,-10.914635
1549475644507,-0.014832,-0.837097,0.826782,3.018293,-23.277439,-10.640244
1549475644515,-0.012573,-0.815613,0.856506,-1.158537,-23.064026,-10.000000
1549475644522,-0.011169,-0.784973,0.916504,-7.134147,-23.582317,-9.817074
1549475644545,0.014893,-0.732117,0.974548,-11.768293,-23.262196,-9.862805
1549475644552,0.035706,-0.686584,1.006409,-12.393293,-21.661587,-9.634147
1549475644553,0.054138,-0.675232,0.983521,-8.582317,-19.329269,-9.024390
1549475644567,0.064514,-0.703918,0.922058,-3.277439,-17.545732,-8.307927
1549475644575,0.055664,-0.760559,0.870667,2.301829,-15.685976,-7.621952
1549475644582,0.050415,-0.799194,0.832947,4.862805,-14.420732,-6.981708
1549475644597,0.061890,-0.799927,0.809753,3.780488,-13.719513,-6.463415
1549475644605,0.068665,-0.787598,0.821045,0.564024,-13.262196,-6.082317
1549475644612,0.067017,-0.769226,0.844604,-3.109756,-13.033537,-5.884147
1549475644627,0.067444,-0.725891,0.831238,-5.884147,-12.530488,-5.716464
1549475644635,0.074402,-0.692261,0.794800,-6.783537,-11.585366,-5.594512
1549475644642,0.079956,-0.689453,0.766846,-5.975610,-10.670732,-5.640244
1549475644657,0.082703,-0.697876,0.735535,-4.435976,-10.213415,-5.716464
1549475644672,0.091492,-0.706299,0.701843,-3.216464,-10.060976,-5.807927
1549475644674,0.109680,-0.704407,0.671265,-2.667683,-9.939025,-5.960366
1549475644687,0.127441,-0.695679,0.639709,-2.698171,-10.121951,-6.082317
1549475644695,0.139709,-0.695679,0.610718,-3.109756,-10.625000,-6.280488
1549475644702,0.149109,-0.688354,0.582947,-3.841464,-11.326220,-6.631098
1549475644717,0.167419,-0.679626,0.563477,-4.832317,-12.179878,-7.027439
1549475644725,0.185486,-0.708740,0.597229,-6.006098,-13.262196,-7.469512
1549475644732,0.179199,-0.808228,0.769531,-7.103659,-14.359756,-7.942073
1549475644747,0.144592,-0.844238,0.963379,-7.667683,-15.121951,-8.109756
1549475644762,0.142212,-0.947205,1.092957,-5.533537,-14.618903,-6.905488
1549475644769,0.150696,-1.084045,1.176147,1.326220,-11.371951,-4.817073
1549475644777,0.123108,-1.109558,1.220032,9.390244,-7.896342,-1.509146
1549475644785,0.093689,-1.032715,1.182739,11.676829,-4.786585,1.966463
1549475644792,0.104797,-0.856262,1.019043,8.185976,-1.448171,3.551829
1549475644815,0.144226,-0.699951,0.846252,3.353659,1.905488,3.963415
1549475644822,0.171814,-0.635803,0.712891,-0.045732,4.100610,3.643293
1549475644829,0.191711,-0.604431,0.604553,-1.326220,4.664634,3.018293
1549475644837,0.205017,-0.592407,0.530334,-1.615854,4.634146,1.753049
1549475644852,0.207581,-0.592041,0.501282,-2.408537,3.841464,0.304878
1549475644859,0.202698,-0.600098,0.504578,-3.399390,2.256098,-0.716463
1549475644867,0.193176,-0.619873,0.537720,-4.557927,0.762195,-1.646341
1549475644882,0.186279,-0.640747,0.585510,-5.487805,-0.594512,-2.317073
1549475644883,0.185059,-0.661194,0.636047,-5.564024,-1.615854,-2.439024
1549475644897,0.182495,-0.693298,0.687073,-4.344512,-2.225610,-2.179878
1549475644905,0.175415,-0.726868,0.734741,-2.042683,-2.454268,-1.631098
1549475644912,0.168884,-0.757568,0.771851,0.350610,-2.271342,-0.945122
1549475644927,0.162842,-0.782166,0.789673,1.798781,-1.829268,-0.304878
1549475644935,0.164917,-0.779358,0.784180,2.134146,-1.310976,0.259146
1549475644942,0.168396,-0.760376,0.766785,1.829268,-0.762195,0.685976
1549475644957,0.166199,-0.732361,0.752014,1.387195,-0.335366,0.899390
1549475644965,0.166077,-0.711670,0.737610,1.097561,-0.045732,0.853659
1549475644972,0.165588,-0.709045,0.722595,0.884146,0.167683,0.655488
1549475644987,0.168091,-0.714539,0.706360,0.685976,0.274390,0.396341
1549475644995,0.173218,-0.717773,0.692078,0.381098,0.320122,0.152439
1549475645002,0.171021,-0.721375,0.689819,-0.091463,0.289634,0.000000
1549475645017,0.170044,-0.729797,0.693848,-0.472561,0.060976,-0.106707
1549475645025,0.173218,-0.734985,0.701721,-0.685976,-0.121951,-0.182927
1549475645032,0.169434,-0.741760,0.713196,-0.823171,-0.152439,-0.152439
1549475645054,0.164612,-0.747925,0.716125,-0.716463,-0.137195,-0.106707
1549475645055,0.166199,-0.743042,0.708069,-0.548781,-0.076220,-0.030488
1549475645062,0.168640,-0.729675,0.695374,-0.579268,0.076220,0.030488
1549475645077,0.171448,-0.722961,0.692444,-0.579268,0.121951,0.060976
1549475645085,0.172119,-0.720215,0.689087,-0.381098,0.091463,0.030488
1549475645092,0.176025,-0.710876,0.675659,-0.304878,0.137195,0.015244
1549475645107,0.178284,-0.701294,0.671936,-0.472561,0.198171,-0.045732
1549475645115,0.177307,-0.704590,0.680481,-0.609756,0.045732,-0.152439
1549475645122,0.178955,-0.708069,0.688965,-0.442073,-0.152439,-0.243902
1549475645138,0.180420,-0.711304,0.700012,-0.182927,-0.167683,-0.213415
1549475645145,0.177002,-0.717407,0.711121,-0.091463,-0.198171,-0.152439
1549475645160,0.176758,-0.721069,0.722351,-0.015244,-0.274390,-0.167683
1549475645167,0.176331,-0.726624,0.727905,0.045732,-0.167683,-0.121951
1549475645175,0.171631,-0.730225,0.730042,0.091463,-0.030488,-0.015244
1549475645182,0.165894,-0.730286,0.728882,0.106707,0.045732,0.045732
