timestamp, accel_x, accel_y, accel_z, gyro_x, gyro_y, gyro_z
1548436960088,-0.847107,0.038818,0.545105,-1.097561,2.682927,0.121951
1548436960096,-0.857056,0.036194,0.548767,-1.036585,2.317073,-0.060976
1548436960112,-0.862793,0.036194,0.545593,-0.914634,1.646341,-0.182927
1548436960118,-0.867065,0.037537,0.547791,-0.731707,1.219512,-0.365854
1548436960126,-0.872498,0.035095,0.547974,-0.609756,0.731707,-0.609756
1548436960141,-0.878906,0.032471,0.550781,-0.365854,0.487805,-0.670732
1548436960148,-0.882080,0.033569,0.552612,-0.304878,0.243902,-0.670732
1548436960157,-0.885193,0.032227,0.550293,-0.365854,0.060976,-0.731707
1548436960171,-0.885986,0.032898,0.549866,-0.487805,-0.182927,-0.731707
1548436960178,-0.885254,0.031677,0.552917,-0.365854,-0.243902,-0.670732
1548436960186,-0.882690,0.030334,0.554932,-0.304878,-0.060976,-0.670732
1548436960201,-0.880676,0.030212,0.555054,-0.243902,-0.060976,-0.670732
1548436960208,-0.880249,0.026428,0.556885,-0.243902,0.060976,-0.609756
1548436960216,-0.883484,0.026550,0.557312,-0.121951,0.000000,-0.609756
1548436960231,-0.882324,0.026123,0.558044,-0.182927,0.000000,-0.548781
1548436960238,-0.880066,0.027466,0.557373,-0.182927,0.060976,-0.609756
1548436960246,-0.882568,0.027649,0.554260,-0.121951,0.121951,-0.609756
1548436960260,-0.881104,0.029297,0.555054,-0.121951,0.060976,-0.609756
1548436960268,-0.878479,0.028870,0.554138,0.060976,0.000000,-0.670732
1548436960276,-0.879761,0.027588,0.551147,0.182927,0.060976,-0.487805
1548436960290,-0.879028,0.027100,0.550110,0.182927,0.060976,-0.487805
1548436960297,-0.880005,0.026306,0.551636,0.304878,-0.060976,-0.548781
1548436960305,-0.879333,0.024353,0.549927,0.304878,-0.060976,-0.426829
1548436960320,-0.878418,0.024658,0.549438,0.426829,-0.060976,-0.365854
1548436960327,-0.878357,0.023621,0.549744,0.365854,-0.121951,-0.243902
1548436960335,-0.878967,0.024536,0.547729,0.365854,-0.182927,-0.243902
1548436960350,-0.879517,0.024841,0.549927,0.304878,-0.243902,-0.121951
1548436960357,-0.878052,0.025879,0.548157,0.365854,-0.365854,-0.182927
1548436960365,-0.879944,0.022400,0.547241,0.304878,-0.487805,-0.121951
1548436960380,-0.880188,0.022766,0.547668,0.426829,-0.548781,0.000000
1548436960387,-0.879700,0.023560,0.550171,0.426829,-0.670732,0.060976
1548436960395,-0.879395,0.022644,0.550842,0.304878,-0.609756,0.060976
1548436960410,-0.879150,0.023193,0.550232,0.243902,-0.609756,0.182927
1548436960417,-0.883667,0.024353,0.550781,0.182927,-0.670732,0.243902
1548436960425,-0.881836,0.025452,0.552612,0.060976,-0.792683,0.304878
1548436960440,-0.880920,0.027588,0.552734,0.121951,-0.792683,0.365854
1548436960448,-0.880371,0.028992,0.551697,0.121951,-0.792683,0.304878
1548436960455,-0.882996,0.029480,0.549683,0.121951,-0.853659,0.304878
1548436960470,-0.883484,0.033691,0.551697,0.121951,-0.853659,0.243902
1548436960478,-0.881104,0.032898,0.552734,0.121951,-0.792683,0.243902
1548436960485,-0.881775,0.033142,0.551880,0.243902,-0.792683,0.243902
1548436960500,-0.882446,0.032776,0.552246,0.365854,-0.731707,0.182927
1548436960507,-0.882141,0.033569,0.553528,0.243902,-0.792683,0.121951
1548436960515,-0.880798,0.032043,0.551514,0.365854,-0.731707,0.060976
1548436960530,-0.884216,0.032349,0.553406,0.487805,-0.792683,0.000000
1548436960537,-0.884216,0.035156,0.550964,0.487805,-0.670732,-0.060976
1548436960545,-0.884338,0.031189,0.551880,0.365854,-0.670732,-0.121951
1548436960560,-0.883423,0.032104,0.550659,0.365854,-0.792683,-0.182927
1548436960567,-0.884338,0.030579,0.549316,0.609756,-0.731707,-0.182927
1548436960575,-0.883728,0.027161,0.551392,0.609756,-0.731707,-0.243902
1548436960590,-0.881287,0.026306,0.550598,0.487805,-0.853659,-0.304878
1548436960597,-0.881287,0.027222,0.550842,0.487805,-0.853659,-0.304878
1548436960605,-0.881287,0.026550,0.548218,0.548781,-0.792683,-0.304878
1548436960620,-0.882080,0.025757,0.549622,0.487805,-0.853659,-0.304878
1548436960628,-0.881287,0.025818,0.550049,0.487805,-0.853659,-0.304878
1548436960635,-0.881409,0.026184,0.553589,0.487805,-0.914634,-0.304878
1548436960650,-0.883606,0.024048,0.555359,0.426829,-0.792683,-0.304878
1548436960658,-0.884460,0.023621,0.552124,0.426829,-0.731707,-0.365854
1548436960666,-0.884399,0.023560,0.552917,0.365854,-0.853659,-0.304878
1548436960680,-0.883606,0.021667,0.555908,0.487805,-0.792683,-0.304878
1548436960688,-0.883484,0.021179,0.554504,0.548781,-0.731707,-0.182927
1548436960695,-0.883301,0.021057,0.554626,0.487805,-0.609756,-0.121951
1548436960711,-0.881958,0.024475,0.552673,0.365854,-0.670732,-0.121951
1548436960718,-0.882690,0.024353,0.553101,0.365854,-0.731707,-0.060976
1548436960726,-0.884888,0.023865,0.553345,0.365854,-0.731707,0.060976
1548436960741,-0.882812,0.027161,0.553345,0.304878,-0.853659,0.182927
1548436960748,-0.882385,0.026123,0.548950,0.304878,-0.853659,0.182927
1548436960760,-0.881531,0.026245,0.549866,0.487805,-0.792683,0.182927
1548436960777,-0.880737,0.027588,0.546448,0.487805,-0.731707,0.182927
1548436960778,-0.880920,0.028198,0.549072,0.487805,-0.731707,0.182927
1548436960791,-0.881775,0.030151,0.548828,0.426829,-0.792683,0.121951
1548436960803,-0.883240,0.032532,0.549927,0.365854,-0.853659,0.121951
1548436960811,-0.882263,0.033020,0.550537,0.243902,-0.853659,0.182927
1548436960815,-0.881897,0.031982,0.553101,0.304878,-0.914634,0.060976
1548436960830,-0.883728,0.031921,0.553162,0.304878,-0.853659,0.060976
1548436960837,-0.884338,0.028503,0.550659,0.243902,-0.853659,0.060976
1548436960852,-0.882385,0.029541,0.552673,0.365854,-0.792683,0.000000
1548436960860,-0.880798,0.027710,0.553955,0.426829,-0.853659,-0.060976
1548436960867,-0.880859,0.026978,0.553833,0.304878,-0.853659,0.000000
1548436960875,-0.881042,0.026001,0.553894,0.365854,-0.792683,-0.060976
1548436960890,-0.882935,0.026794,0.551208,0.243902,-0.792683,-0.060976
1548436960897,-0.884094,0.026367,0.551331,0.304878,-0.792683,-0.060976
1548436960905,-0.880371,0.026672,0.550903,0.304878,-0.853659,0.000000
1548436960920,-0.882935,0.027344,0.550842,0.243902,-0.792683,0.060976
1548436960927,-0.880798,0.026489,0.550110,0.365854,-0.792683,0.060976
1548436960935,-0.881958,0.027588,0.549316,0.426829,-0.914634,0.060976
1548436960951,-0.881958,0.026428,0.552002,0.426829,-0.731707,0.000000
1548436960957,-0.882629,0.026550,0.550110,0.243902,-0.731707,0.000000
1548436960965,-0.883667,0.026489,0.552368,0.243902,-0.792683,0.060976
1548436960980,-0.883362,0.025330,0.551758,0.304878,-0.853659,0.000000
1548436960988,-0.884094,0.026306,0.547424,0.426829,-0.792683,0.000000
1548436960995,-0.883240,0.028442,0.551270,0.365854,-0.792683,0.121951
1548436961010,-0.880493,0.026489,0.549805,0.426829,-0.792683,0.121951
1548436961017,-0.881653,0.026062,0.548340,0.426829,-0.670732,0.182927
1548436961025,-0.881409,0.028076,0.551819,0.426829,-0.731707,0.121951
1548436961040,-0.882446,0.025513,0.551453,0.365854,-0.731707,0.000000
1548436961047,-0.884216,0.024475,0.553101,0.365854,-0.731707,0.121951
1548436961055,-0.882874,0.024109,0.553406,0.365854,-0.792683,0.304878
1548436961063,-0.883484,0.025574,0.552673,0.304878,-0.853659,0.243902
1548436961078,-0.882690,0.027527,0.551453,0.304878,-0.792683,0.243902
1548436961085,-0.883118,0.028320,0.552185,0.182927,-0.792683,0.304878
1548436961093,-0.883301,0.028809,0.552307,0.243902,-0.731707,0.243902
1548436961108,-0.881653,0.030029,0.552856,0.304878,-0.792683,0.243902
1548436961115,-0.881836,0.030579,0.552856,0.426829,-0.731707,0.182927
1548436961122,-0.880920,0.028809,0.551941,0.487805,-0.731707,0.243902
1548436961138,-0.880188,0.026001,0.553101,0.365854,-0.731707,0.243902
1548436961145,-0.882263,0.026428,0.550049,0.426829,-0.670732,0.243902
1548436961153,-0.883667,0.027039,0.548523,0.304878,-0.670732,0.365854
1548436961168,-0.882751,0.030212,0.550842,0.182927,-0.792683,0.243902
1548436961175,-0.881714,0.030212,0.550354,0.182927,-0.731707,0.182927
1548436961182,-0.880798,0.028687,0.552490,0.182927,-0.670732,0.243902
1548436961197,-0.881287,0.028259,0.551331,0.365854,-0.670732,0.121951
1548436961205,-0.882690,0.029053,0.552734,0.487805,-0.731707,0.121951
1548436961212,-0.881287,0.026428,0.549255,0.487805,-0.792683,0.121951
1548436961227,-0.883057,0.025574,0.551392,0.365854,-0.731707,0.060976
1548436961235,-0.882996,0.027649,0.551025,0.365854,-0.670732,0.304878
1548436961242,-0.882996,0.027283,0.552063,0.304878,-0.792683,0.365854
1548436961258,-0.881226,0.028748,0.552429,0.304878,-0.792683,0.121951
1548436961265,-0.881958,0.029236,0.552490,0.243902,-0.792683,0.121951
1548436961272,-0.883911,0.028381,0.551270,0.304878,-0.853659,0.121951
1548436961287,-0.881409,0.028015,0.552734,0.365854,-0.914634,0.060976
1548436961295,-0.882202,0.029480,0.552917,0.426829,-0.731707,0.060976
1548436961303,-0.882080,0.027649,0.550781,0.426829,-0.853659,0.060976
1548436961317,-0.882080,0.026489,0.550476,0.426829,-0.914634,0.060976
1548436961325,-0.883484,0.026794,0.549866,0.487805,-0.670732,0.060976
1548436961332,-0.882141,0.024719,0.551636,0.426829,-0.792683,0.000000
1548436961347,-0.881714,0.024841,0.553406,0.426829,-0.853659,0.000000
1548436961355,-0.882263,0.025452,0.552673,0.426829,-0.792683,0.121951
1548436961370,-0.880615,0.025574,0.552734,0.304878,-0.792683,0.121951
1548436961378,-0.882019,0.026733,0.554504,0.426829,-0.731707,0.182927
1548436961385,-0.882324,0.026245,0.553772,0.304878,-0.731707,0.182927
1548436961392,-0.884399,0.024109,0.550598,0.304878,-0.792683,0.121951
1548436961407,-0.883057,0.027527,0.548767,0.365854,-0.792683,0.182927
1548436961415,-0.882446,0.027283,0.550903,0.426829,-0.853659,0.243902
1548436961423,-0.881226,0.025146,0.548401,0.365854,-0.914634,0.121951
1548436961437,-0.879883,0.027283,0.550598,0.243902,-0.853659,0.182927
1548436961445,-0.881775,0.028259,0.551880,0.182927,-0.914634,0.182927
1548436961453,-0.883606,0.028442,0.551392,0.182927,-0.853659,0.182927
1548436961467,-0.881592,0.028320,0.551819,0.304878,-0.975610,0.182927
1548436961475,-0.881470,0.029114,0.552368,0.365854,-0.975610,0.182927
1548436961482,-0.883057,0.028564,0.554077,0.304878,-1.036585,0.121951
1548436961498,-0.882935,0.028625,0.553711,0.304878,-0.975610,0.121951
1548436961505,-0.881470,0.028442,0.556885,0.365854,-0.853659,0.060976
1548436961512,-0.881409,0.028564,0.557007,0.304878,-0.792683,0.060976
1548436961527,-0.881470,0.026672,0.554504,0.365854,-0.792683,0.121951
1548436961535,-0.881104,0.028259,0.554321,0.426829,-0.792683,0.182927
1548436961542,-0.880554,0.027405,0.554443,0.365854,-0.853659,0.182927
1548436961557,-0.880798,0.025940,0.553223,0.304878,-0.853659,0.121951
1548436961565,-0.880859,0.026062,0.551819,0.365854,-0.731707,0.121951
1548436961572,-0.882019,0.025940,0.551208,0.304878,-0.792683,0.121951
1548436961587,-0.882874,0.027710,0.549011,0.365854,-0.792683,0.121951
1548436961595,-0.882446,0.026611,0.548096,0.426829,-0.731707,0.121951
1548436961602,-0.880737,0.024536,0.550842,0.426829,-0.670732,0.182927
1548436961617,-0.878296,0.026917,0.553955,0.365854,-0.731707,0.182927
1548436961632,-0.880859,0.025452,0.552124,0.182927,-0.853659,0.121951
1548436961633,-0.880554,0.025513,0.550781,0.243902,-0.731707,0.243902
1548436961647,-0.880005,0.026367,0.550354,0.426829,-0.731707,0.243902
1548436961655,-0.881836,0.027039,0.550598,0.548781,-0.792683,0.182927
1548436961662,-0.880432,0.026489,0.552856,0.365854,-0.853659,0.243902
1548436961677,-0.881592,0.025757,0.552856,0.365854,-0.792683,0.243902
1548436961685,-0.883789,0.028259,0.552124,0.365854,-0.853659,0.243902
1548436961692,-0.882141,0.026917,0.553101,0.365854,-0.853659,0.243902
1548436961708,-0.881042,0.027588,0.554504,0.426829,-0.731707,0.243902
1548436961715,-0.881531,0.026001,0.553589,0.365854,-0.792683,0.243902
1548436961723,-0.881592,0.027405,0.555481,0.243902,-0.792683,0.304878
1548436961738,-0.883301,0.028076,0.555847,0.304878,-0.731707,0.365854
1548436961745,-0.881775,0.030090,0.554993,0.304878,-0.914634,0.243902
1548436961752,-0.880615,0.028931,0.555481,0.426829,-0.792683,0.182927
1548436961768,-0.881042,0.026978,0.553223,0.487805,-0.731707,0.182927
1548436961775,-0.881897,0.027893,0.551392,0.426829,-0.670732,0.121951
1548436961782,-0.880920,0.027283,0.552612,0.365854,-0.792683,0.182927
1548436961797,-0.879211,0.027100,0.550903,0.487805,-0.792683,0.243902
1548436961805,-0.881409,0.028381,0.550537,0.487805,-0.792683,0.182927
1548436961820,-0.883728,0.026550,0.549194,0.365854,-0.792683,0.182927
1548436961827,-0.882019,0.025513,0.552368,0.304878,-0.731707,0.182927
1548436961835,-0.883667,0.025696,0.552063,0.365854,-0.853659,0.182927
1548436961843,-0.882751,0.024963,0.550476,0.365854,-0.792683,0.121951
1548436961859,-0.882751,0.025696,0.550903,0.365854,-0.853659,0.182927
1548436961865,-0.881042,0.027466,0.553833,0.426829,-0.853659,0.121951
1548436961884,-0.881470,0.026062,0.554077,0.426829,-0.792683,0.243902
1548436961905,-0.881592,0.027039,0.552429,0.426829,-0.731707,0.243902
1548436961905,-0.880310,0.026062,0.549622,0.304878,-0.731707,0.304878
1548436961905,-0.881775,0.025513,0.552795,0.304878,-0.731707,0.243902
1548436961937,-0.882446,0.027161,0.552490,0.304878,-0.792683,0.243902
1548436961937,-0.882996,0.029175,0.553650,0.304878,-0.853659,0.243902
1548436961937,-0.882263,0.026611,0.549927,0.426829,-0.853659,0.243902
1548436961960,-0.882080,0.026978,0.550476,0.365854,-0.853659,0.182927
1548436961960,-0.884399,0.029114,0.551697,0.304878,-0.731707,0.182927
1548436961966,-0.881653,0.028687,0.552795,0.304878,-0.731707,0.121951
1548436961979,-0.880554,0.025452,0.553894,0.426829,-0.792683,0.182927
1548436961985,-0.881287,0.028503,0.552429,0.365854,-0.914634,0.182927
1548436961993,-0.883423,0.028137,0.553467,0.426829,-0.853659,0.182927
1548436962009,-0.881287,0.028931,0.553711,0.487805,-0.731707,0.243902
1548436962015,-0.881226,0.029419,0.553833,0.487805,-0.792683,0.182927
1548436962022,-0.883423,0.027161,0.553528,0.426829,-0.853659,0.182927
1548436962038,-0.880798,0.027771,0.553101,0.426829,-0.670732,0.182927
1548436962045,-0.880798,0.027466,0.553894,0.487805,-0.792683,0.060976
1548436962052,-0.882080,0.027283,0.553406,0.304878,-0.731707,0.121951
1548436962067,-0.882263,0.026917,0.551819,0.182927,-0.731707,0.182927
1548436962075,-0.881348,0.027405,0.550964,0.243902,-0.853659,0.121951
1548436962082,-0.882874,0.026062,0.550781,0.365854,-0.914634,0.121951
1548436962097,-0.882080,0.027283,0.549744,0.426829,-0.914634,0.121951
1548436962105,-0.880859,0.027100,0.549133,0.487805,-0.853659,0.121951
1548436962115,-0.880005,0.028992,0.550171,0.182927,-0.914634,0.121951
1548436962127,-0.883179,0.028809,0.551147,0.182927,-0.975610,0.121951
1548436962135,-0.882690,0.026611,0.553223,0.365854,-0.975610,0.121951
1548436962142,-0.880554,0.025757,0.552307,0.365854,-0.914634,0.121951
1548436962157,-0.882507,0.026611,0.554993,0.304878,-0.914634,0.182927
1548436962165,-0.883606,0.025696,0.554565,0.304878,-0.914634,0.243902
1548436962172,-0.881836,0.028687,0.555603,0.243902,-0.853659,0.182927
1548436962187,-0.882629,0.026733,0.556580,0.304878,-0.914634,0.182927
1548436962195,-0.881531,0.026367,0.556519,0.304878,-0.853659,0.121951
1548436962202,-0.878967,0.027039,0.556824,0.365854,-0.731707,0.060976
1548436962217,-0.881714,0.026794,0.555359,0.426829,-0.670732,0.060976
1548436962225,-0.880676,0.026917,0.552368,0.365854,-0.731707,0.182927
1548436962232,-0.881531,0.025879,0.552795,0.365854,-0.792683,0.121951
1548436962247,-0.881226,0.024048,0.549927,0.426829,-0.731707,0.182927
1548436962255,-0.882080,0.025208,0.551697,0.365854,-0.670732,0.060976
1548436962262,-0.882751,0.027039,0.551270,0.365854,-0.731707,0.060976
1548436962277,-0.881653,0.026672,0.550598,0.304878,-0.731707,0.060976
1548436962285,-0.880249,0.026428,0.552979,0.304878,-0.853659,0.060976
1548436962292,-0.881592,0.026245,0.553772,0.426829,-0.792683,0.060976
1548436962307,-0.883850,0.025513,0.549377,0.365854,-0.792683,0.182927
1548436962315,-0.881653,0.025391,0.551392,0.426829,-0.792683,0.121951
1548436962322,-0.883362,0.026672,0.552429,0.487805,-0.792683,0.182927
1548436962337,-0.884216,0.024719,0.552490,0.487805,-0.792683,0.182927
1548436962345,-0.880371,0.025085,0.554016,0.365854,-0.731707,0.243902
1548436962353,-0.881592,0.023560,0.554138,0.304878,-0.853659,0.365854
1548436962368,-0.881958,0.024780,0.554810,0.365854,-0.792683,0.182927
1548436962375,-0.880066,0.024353,0.552185,0.243902,-0.853659,0.304878
1548436962383,-0.881470,0.025330,0.552979,0.243902,-0.914634,0.304878
1548436962398,-0.882812,0.028503,0.551331,0.365854,-0.853659,0.426829
1548436962405,-0.881165,0.029175,0.551880,0.304878,-0.731707,0.365854
1548436962413,-0.880737,0.028381,0.554932,0.304878,-0.670732,0.304878
1548436962428,-0.884521,0.030212,0.553955,0.365854,-0.792683,0.304878
1548436962435,-0.884338,0.029480,0.553711,0.304878,-0.731707,0.304878
1548436962442,-0.880249,0.027405,0.553345,0.365854,-0.670732,0.304878
1548436962457,-0.880798,0.028381,0.553345,0.426829,-0.670732,0.243902
1548436962465,-0.879150,0.030029,0.552063,0.426829,-0.731707,0.182927
1548436962473,-0.878784,0.027954,0.553528,0.487805,-0.792683,0.243902
1548436962487,-0.879272,0.024597,0.553467,0.426829,-0.792683,0.243902
1548436962495,-0.882446,0.024353,0.553894,0.426829,-0.731707,0.182927
1548436962502,-0.882385,0.027283,0.550598,0.365854,-0.731707,0.182927
1548436962517,-0.883362,0.025391,0.551208,0.365854,-0.731707,0.243902
1548436962525,-0.882751,0.024414,0.550903,0.304878,-0.792683,0.182927
1548436962532,-0.881165,0.028259,0.550842,0.365854,-0.731707,0.243902
1548436962548,-0.881104,0.026917,0.549622,0.365854,-0.792683,0.121951
1548436962555,-0.881042,0.025146,0.552795,0.426829,-0.731707,0.182927
1548436962562,-0.879395,0.027283,0.553162,0.426829,-0.914634,0.243902
1548436962577,-0.881470,0.026367,0.553345,0.426829,-0.853659,0.243902
1548436962585,-0.883057,0.024231,0.554688,0.426829,-0.853659,0.243902
1548436962593,-0.882568,0.025330,0.554016,0.304878,-0.792683,0.243902
1548436962607,-0.882019,0.026367,0.552063,0.304878,-0.792683,0.182927
1548436962615,-0.881287,0.027893,0.554138,0.304878,-0.731707,0.304878
1548436962622,-0.880493,0.029358,0.553711,0.304878,-0.853659,0.182927
1548436962637,-0.881470,0.027893,0.553101,0.304878,-0.792683,0.182927
1548436962645,-0.881958,0.026611,0.554321,0.426829,-0.670732,0.182927
1548436962652,-0.881958,0.026245,0.553406,0.426829,-0.670732,0.182927
1548436962667,-0.882996,0.025818,0.553955,0.487805,-0.792683,0.182927
1548436962675,-0.880676,0.024536,0.556641,0.426829,-0.853659,0.243902
1548436962683,-0.880066,0.024902,0.553955,0.426829,-0.792683,0.243902
1548436962698,-0.883911,0.024719,0.555420,0.304878,-0.792683,0.304878
1548436962705,-0.883118,0.028015,0.553894,0.243902,-0.731707,0.243902
1548436962712,-0.882812,0.028076,0.552856,0.304878,-0.731707,0.243902
1548436962727,-0.879578,0.030640,0.552368,0.365854,-0.731707,0.243902
1548436962735,-0.879211,0.028076,0.553528,0.304878,-0.670732,0.243902
1548436962742,-0.880676,0.028442,0.551819,0.426829,-0.731707,0.243902
1548436962757,-0.880615,0.027100,0.553467,0.487805,-0.731707,0.304878
1548436962765,-0.878906,0.027832,0.553894,0.426829,-0.792683,0.243902
1548436962773,-0.880859,0.027039,0.552734,0.304878,-0.792683,0.243902
1548436962787,-0.882568,0.025452,0.551636,0.365854,-0.914634,0.304878
1548436962795,-0.881348,0.027100,0.550781,0.426829,-0.853659,0.182927
1548436962802,-0.879822,0.027893,0.550720,0.304878,-0.853659,0.182927
1548436962818,-0.880676,0.028076,0.549683,0.365854,-0.853659,0.182927
1548436962825,-0.882996,0.027771,0.552246,0.365854,-0.914634,0.121951
1548436962832,-0.881958,0.027344,0.554321,0.243902,-0.975610,0.121951
1548436962848,-0.882507,0.025757,0.553833,0.365854,-0.975610,0.182927
1548436962855,-0.884583,0.026550,0.554871,0.365854,-0.914634,0.182927
1548436962862,-0.881165,0.025330,0.558472,0.304878,-0.853659,0.243902
1548436962877,-0.883179,0.024231,0.558716,0.243902,-0.914634,0.182927
1548436962885,-0.882996,0.023926,0.556458,0.304878,-0.853659,0.243902
1548436962893,-0.881836,0.025391,0.555969,0.243902,-0.792683,0.182927
1548436962907,-0.882141,0.024414,0.555786,0.243902,-0.853659,0.182927
1548436962915,-0.882019,0.026489,0.554077,0.304878,-0.731707,0.304878
1548436962923,-0.881714,0.025513,0.552917,0.365854,-0.670732,0.304878
1548436962938,-0.881409,0.026428,0.553345,0.243902,-0.731707,0.304878
1548436962945,-0.882690,0.028625,0.552063,0.243902,-0.731707,0.304878
1548436962952,-0.882324,0.028687,0.550415,0.243902,-0.609756,0.365854
1548436962968,-0.879578,0.027954,0.550537,0.365854,-0.609756,0.243902
1548436962975,-0.878601,0.029541,0.550659,0.487805,-0.731707,0.243902
1548436962983,-0.880005,0.025757,0.551392,0.365854,-0.853659,0.182927
1548436962998,-0.882568,0.025574,0.551941,0.426829,-0.792683,0.182927
1548436963005,-0.881287,0.027771,0.551147,0.426829,-0.975610,0.182927
1548436963013,-0.880859,0.026184,0.553406,0.365854,-0.975610,0.243902
1548436963028,-0.882324,0.026733,0.552490,0.365854,-0.792683,0.182927
1548436963035,-0.881104,0.025024,0.550903,0.365854,-0.792683,0.182927
1548436963043,-0.879333,0.027100,0.552002,0.426829,-0.853659,0.182927
1548436963057,-0.880737,0.024292,0.556335,0.487805,-0.792683,0.243902
1548436963065,-0.878845,0.024170,0.555908,0.487805,-0.670732,0.182927
1548436963072,-0.881653,0.025635,0.554260,0.365854,-0.792683,0.243902
1548436963087,-0.880493,0.024353,0.555725,0.182927,-0.731707,0.365854
1548436963095,-0.881348,0.023804,0.553650,0.243902,-0.731707,0.365854
1548436963103,-0.883545,0.026428,0.553162,0.243902,-0.731707,0.365854
1548436963117,-0.880188,0.030334,0.550659,0.243902,-0.731707,0.365854
1548436963125,-0.879761,0.031555,0.550720,0.304878,-0.731707,0.365854
1548436963132,-0.882812,0.030273,0.552612,0.304878,-0.792683,0.304878
1548436963147,-0.882446,0.028198,0.550964,0.243902,-0.731707,0.304878
1548436963155,-0.882080,0.029175,0.550659,0.365854,-0.731707,0.243902
1548436963163,-0.880859,0.028564,0.553894,0.365854,-0.792683,0.182927
1548436963177,-0.879272,0.028137,0.550476,0.304878,-0.731707,0.304878
1548436963185,-0.879944,0.028320,0.552612,0.365854,-0.731707,0.182927
1548436963193,-0.882629,0.025513,0.552185,0.426829,-0.731707,0.182927
1548436963208,-0.880005,0.025940,0.551941,0.304878,-0.670732,0.182927
1548436963215,-0.882141,0.026123,0.553284,0.365854,-0.731707,0.060976
1548436963223,-0.882385,0.027893,0.551392,0.365854,-0.731707,0.182927
1548436963238,-0.882812,0.027588,0.552917,0.426829,-0.792683,0.182927
1548436963245,-0.881287,0.024170,0.554321,0.426829,-0.731707,0.121951
1548436963253,-0.882202,0.024963,0.554871,0.487805,-0.670732,0.121951
1548436963268,-0.880920,0.026062,0.550659,0.426829,-0.792683,0.243902
1548436963275,-0.881653,0.027161,0.552429,0.365854,-0.792683,0.243902
1548436963283,-0.881104,0.023865,0.555725,0.304878,-0.853659,0.182927
1548436963305,-0.882263,0.024231,0.554260,0.304878,-0.792683,0.182927
1548436963306,-0.883789,0.025574,0.553345,0.426829,-0.731707,0.182927
1548436963321,-0.882874,0.027405,0.553528,0.487805,-0.731707,0.243902
1548436963343,-0.882690,0.027832,0.551941,0.365854,-0.792683,0.243902
1548436963344,-0.881287,0.027954,0.551331,0.365854,-0.792683,0.243902
1548436963344,-0.880554,0.027405,0.552734,0.487805,-0.731707,0.243902
1548436963358,-0.879944,0.026306,0.552551,0.548781,-0.792683,0.182927
1548436963365,-0.882019,0.025085,0.551636,0.426829,-0.731707,0.182927
1548436963372,-0.880676,0.026123,0.553711,0.365854,-0.792683,0.121951
1548436963387,-0.881775,0.024048,0.552856,0.426829,-0.792683,0.243902
1548436963395,-0.883423,0.026306,0.552429,0.426829,-0.853659,0.243902
1548436963403,-0.882202,0.026306,0.553589,0.304878,-0.792683,0.121951
1548436963418,-0.882202,0.025269,0.551147,0.426829,-0.792683,0.243902
1548436963425,-0.882324,0.026733,0.551880,0.548781,-0.792683,0.182927
1548436963432,-0.879333,0.026550,0.553711,0.548781,-0.792683,0.182927
1548436963447,-0.878845,0.027039,0.553528,0.426829,-0.792683,0.243902
1548436963455,-0.879211,0.026306,0.552979,0.426829,-0.731707,0.243902
1548436963463,-0.882874,0.025574,0.555298,0.304878,-0.914634,0.243902
1548436963478,-0.882080,0.027649,0.553772,0.304878,-0.914634,0.182927
1548436963485,-0.881287,0.027527,0.552734,0.365854,-0.853659,0.182927
1548436963492,-0.883118,0.028442,0.552368,0.426829,-0.853659,0.182927
1548436963507,-0.881348,0.028198,0.551880,0.426829,-0.853659,0.060976
1548436963515,-0.878845,0.026489,0.553223,0.426829,-0.853659,0.060976
1548436963522,-0.880798,0.026062,0.553040,0.487805,-0.914634,0.000000
1548436963538,-0.881470,0.025940,0.552917,0.365854,-0.975610,0.060976
1548436963545,-0.883362,0.025085,0.553345,0.304878,-0.914634,0.182927
1548436963552,-0.882935,0.023010,0.554749,0.426829,-0.853659,0.060976
1548436963567,-0.882141,0.023132,0.553772,0.426829,-0.792683,0.121951
1548436963575,-0.882202,0.023560,0.555664,0.243902,-0.914634,0.121951
1548436963582,-0.882690,0.023254,0.554443,0.304878,-0.853659,0.182927
1548436963597,-0.880005,0.024597,0.555359,0.426829,-0.853659,0.182927
1548436963605,-0.881958,0.024780,0.554871,0.426829,-0.853659,0.243902
1548436963613,-0.882141,0.026306,0.552673,0.365854,-0.792683,0.304878
1548436963628,-0.880493,0.024780,0.554810,0.365854,-0.731707,0.182927
1548436963635,-0.880615,0.025940,0.553223,0.365854,-0.792683,0.243902
1548436963643,-0.880981,0.025024,0.553772,0.243902,-0.853659,0.243902
1548436963658,-0.882446,0.025513,0.553833,0.426829,-0.792683,0.243902
1548436963665,-0.882141,0.026794,0.549866,0.365854,-0.853659,0.243902
1548436963673,-0.881287,0.027405,0.550232,0.426829,-0.731707,0.182927
1548436963688,-0.881653,0.026917,0.550720,0.365854,-0.792683,0.182927
1548436963695,-0.880371,0.027222,0.553833,0.365854,-0.731707,0.182927
1548436963703,-0.878601,0.026245,0.554443,0.487805,-0.792683,0.182927
1548436963718,-0.881409,0.024902,0.551514,0.487805,-0.792683,0.182927
1548436963725,-0.882141,0.025574,0.553894,0.426829,-0.792683,0.182927
1548436963732,-0.881531,0.025696,0.552307,0.548781,-0.853659,0.182927
1548436963747,-0.879333,0.024292,0.550354,0.487805,-0.792683,0.243902
1548436963755,-0.879822,0.024719,0.551270,0.426829,-0.670732,0.304878
1548436963763,-0.880981,0.025513,0.553955,0.304878,-0.670732,0.182927
1548436963778,-0.880249,0.027222,0.552795,0.182927,-0.731707,0.304878
1548436963785,-0.879944,0.026611,0.552612,0.304878,-0.792683,0.243902
1548436963792,-0.881470,0.025940,0.552490,0.304878,-0.792683,0.243902
1548436963807,-0.882385,0.028381,0.554443,0.304878,-0.792683,0.182927
1548436963822,-0.882507,0.029297,0.553406,0.426829,-0.853659,0.182927
1548436963823,-0.882874,0.027588,0.554077,0.487805,-0.731707,0.243902
1548436963838,-0.882751,0.026550,0.552002,0.365854,-0.731707,0.243902
1548436963845,-0.881775,0.026855,0.552673,0.304878,-0.792683,0.243902
1548436963853,-0.880188,0.028442,0.554504,0.426829,-0.853659,0.121951
1548436963868,-0.880066,0.024841,0.555603,0.487805,-0.792683,0.121951
1548436963882,-0.880310,0.024719,0.554443,0.365854,-0.792683,0.060976
1548436963883,-0.881226,0.024536,0.552490,0.426829,-0.792683,0.182927
1548436963898,-0.882751,0.022705,0.552368,0.487805,-0.731707,0.243902
1548436963905,-0.882507,0.022461,0.552856,0.365854,-0.731707,0.121951
1548436963913,-0.880249,0.024658,0.553467,0.304878,-0.670732,0.304878
1548436963927,-0.881104,0.027222,0.553589,0.304878,-0.792683,0.304878
1548436963935,-0.881042,0.026428,0.551025,0.304878,-0.853659,0.243902
1548436963943,-0.880981,0.027161,0.550964,0.304878,-0.853659,0.243902
1548436963958,-0.880615,0.026794,0.552246,0.487805,-0.731707,0.243902
1548436963965,-0.881531,0.027100,0.551147,0.487805,-0.853659,0.304878
1548436963973,-0.881958,0.028748,0.552673,0.365854,-0.853659,0.304878
1548436963987,-0.881531,0.028320,0.552490,0.304878,-0.853659,0.243902
1548436963995,-0.882996,0.027527,0.551392,0.365854,-0.853659,0.243902
1548436964003,-0.881348,0.025635,0.555237,0.365854,-0.792683,0.243902
1548436964018,-0.881470,0.026733,0.554993,0.365854,-0.731707,0.182927
1548436964025,-0.884155,0.029114,0.554199,0.365854,-0.670732,0.182927
1548436964033,-0.879639,0.025879,0.553040,0.548781,-0.731707,0.121951
1548436964048,-0.878052,0.025269,0.556885,0.365854,-0.731707,0.121951
1548436964055,-0.877747,0.026550,0.555115,0.304878,-0.792683,0.182927
1548436964070,-0.878418,0.024658,0.555359,0.426829,-0.792683,0.243902
1548436964077,-0.878357,0.024658,0.551392,0.426829,-0.792683,0.182927
1548436964085,-0.881714,0.025085,0.551819,0.426829,-0.792683,0.182927
1548436964093,-0.881104,0.024902,0.552307,0.365854,-0.731707,0.243902
1548436964108,-0.881958,0.026306,0.552246,0.426829,-0.914634,0.243902
1548436964115,-0.881409,0.025452,0.550598,0.426829,-0.853659,0.243902
1548436964123,-0.883362,0.026062,0.550232,0.426829,-0.792683,0.182927
1548436964138,-0.881348,0.027283,0.553345,0.426829,-0.731707,0.182927
1548436964145,-0.880676,0.027405,0.554871,0.426829,-0.731707,0.243902
1548436964153,-0.880615,0.024353,0.555298,0.304878,-0.792683,0.182927
1548436964167,-0.881653,0.024170,0.552612,0.426829,-0.792683,0.182927
1548436964175,-0.879456,0.025085,0.550903,0.426829,-0.792683,0.182927
1548436964183,-0.878296,0.027100,0.552490,0.426829,-0.853659,0.243902
1548436964198,-0.881714,0.025757,0.550842,0.365854,-0.914634,0.243902
1548436964205,-0.882141,0.024902,0.552002,0.365854,-0.975610,0.182927
1548436964212,-0.880920,0.027161,0.553833,0.304878,-0.914634,0.121951
1548436964228,-0.880676,0.027954,0.553833,0.243902,-0.914634,0.060976
1548436964235,-0.881592,0.027954,0.553772,0.243902,-0.914634,0.182927
1548436964242,-0.883057,0.026428,0.557190,0.365854,-0.853659,0.243902
1548436964257,-0.882507,0.025146,0.557861,0.365854,-0.914634,0.182927
1548436964265,-0.882874,0.025513,0.556763,0.365854,-0.975610,0.121951
1548436964273,-0.881653,0.023193,0.557129,0.365854,-0.792683,0.182927
1548436964288,-0.878967,0.023438,0.554749,0.304878,-0.792683,0.121951
1548436964295,-0.879944,0.023743,0.554443,0.304878,-0.853659,0.182927
1548436964303,-0.881775,0.024597,0.553101,0.365854,-0.853659,0.182927
1548436964318,-0.883118,0.023376,0.553650,0.365854,-0.792683,0.182927
1548436964325,-0.882141,0.022339,0.553589,0.243902,-0.853659,0.182927
1548436964333,-0.882446,0.022034,0.552307,0.243902,-0.792683,0.304878
1548436964348,-0.882080,0.024109,0.553406,0.304878,-0.731707,0.243902
1548436964355,-0.884033,0.024231,0.552307,0.243902,-0.792683,0.243902
1548436964363,-0.881897,0.023987,0.549622,0.365854,-0.731707,0.304878
1548436964385,-0.880737,0.026062,0.551270,0.365854,-0.853659,0.243902
1548436964386,-0.879517,0.025208,0.553101,0.365854,-0.792683,0.243902
1548436964392,-0.880798,0.024475,0.552490,0.487805,-0.792683,0.243902
1548436964408,-0.878662,0.026428,0.552917,0.426829,-0.731707,0.304878
1548436964415,-0.880371,0.026245,0.555359,0.426829,-0.792683,0.243902
1548436964423,-0.881531,0.024963,0.552856,0.548781,-0.853659,0.243902
1548436964438,-0.882019,0.024841,0.553467,0.487805,-0.731707,0.243902
1548436964445,-0.880493,0.022888,0.551575,0.426829,-0.792683,0.121951
1548436964453,-0.879578,0.022644,0.552673,0.426829,-0.731707,0.182927
1548436964468,-0.881287,0.024292,0.553467,0.365854,-0.670732,0.182927
1548436964475,-0.881531,0.025818,0.553345,0.304878,-0.792683,0.182927
1548436964483,-0.882629,0.024353,0.553894,0.365854,-0.792683,0.243902
1548436964498,-0.880188,0.023621,0.554565,0.426829,-0.792683,0.243902
1548436964505,-0.881470,0.022095,0.552856,0.487805,-0.731707,0.243902
1548436964513,-0.881531,0.023010,0.553284,0.365854,-0.670732,0.304878
1548436964528,-0.881592,0.023804,0.554138,0.304878,-0.731707,0.243902
1548436964535,-0.882202,0.025696,0.552795,0.304878,-0.731707,0.243902
1548436964542,-0.882080,0.026245,0.555664,0.243902,-0.670732,0.182927
1548436964558,-0.881775,0.027344,0.552734,0.304878,-0.731707,0.243902
1548436964565,-0.881409,0.025940,0.554016,0.426829,-0.792683,0.243902
1548436964573,-0.879761,0.027222,0.553955,0.487805,-0.731707,0.243902
1548436964588,-0.881775,0.023315,0.550659,0.548781,-0.792683,0.121951
1548436964595,-0.880127,0.021912,0.556091,0.487805,-0.853659,0.182927
1548436964603,-0.878723,0.021729,0.555908,0.426829,-0.792683,0.182927
1548436964618,-0.881042,0.021973,0.554932,0.487805,-0.731707,0.243902
1548436964625,-0.881165,0.023010,0.553040,0.365854,-0.792683,0.182927
1548436964632,-0.881897,0.023682,0.555603,0.365854,-0.792683,0.243902
1548436964648,-0.882812,0.024658,0.554443,0.304878,-0.731707,0.243902
1548436964655,-0.881348,0.025208,0.553833,0.243902,-0.853659,0.243902
1548436964663,-0.879456,0.025513,0.554626,0.365854,-0.792683,0.243902
1548436964678,-0.880432,0.026001,0.554016,0.548781,-0.792683,0.182927
1548436964685,-0.882568,0.025208,0.552979,0.426829,-0.731707,0.304878
1548436964693,-0.881592,0.025879,0.551147,0.365854,-0.731707,0.243902
1548436964708,-0.879700,0.024414,0.555725,0.243902,-0.731707,0.182927
1548436964715,-0.880737,0.025513,0.554077,0.426829,-0.792683,0.121951
1548436964722,-0.882629,0.026489,0.554199,0.487805,-0.792683,0.121951
1548436964738,-0.883179,0.023193,0.556580,0.365854,-0.792683,0.121951
1548436964745,-0.881042,0.022095,0.553528,0.365854,-0.792683,0.121951
1548436964752,-0.880676,0.022461,0.555481,0.426829,-0.731707,0.182927
1548436964768,-0.879883,0.023682,0.553833,0.426829,-0.731707,0.304878
1548436964775,-0.881165,0.023621,0.552246,0.243902,-0.731707,0.304878
1548436964783,-0.879333,0.021851,0.554260,0.426829,-0.670732,0.243902
1548436964798,-0.878418,0.021301,0.555176,0.487805,-0.731707,0.243902
1548436964806,-0.881531,0.023865,0.553833,0.426829,-0.792683,0.243902
1548436964813,-0.881775,0.025024,0.551331,0.304878,-0.670732,0.304878
1548436964828,-0.882629,0.024536,0.550903,0.304878,-0.792683,0.243902
1548436964835,-0.881165,0.023865,0.552734,0.365854,-0.731707,0.304878
1548436964843,-0.880371,0.025391,0.555298,0.304878,-0.731707,0.304878
1548436964858,-0.881592,0.027161,0.553650,0.243902,-0.792683,0.243902
1548436964866,-0.879211,0.027161,0.552429,0.243902,-0.670732,0.365854
1548436964874,-0.879028,0.025574,0.556702,0.365854,-0.853659,0.304878
1548436964888,-0.879700,0.023682,0.556763,0.365854,-0.853659,0.182927
1548436964895,-0.880554,0.025024,0.555664,0.304878,-0.731707,0.182927
1548436964903,-0.880737,0.025085,0.554443,0.304878,-0.731707,0.304878
1548436964918,-0.880005,0.025635,0.552002,0.426829,-0.792683,0.182927
1548436964926,-0.880737,0.024902,0.550537,0.487805,-0.853659,0.182927
1548436964933,-0.880188,0.025818,0.552124,0.426829,-0.853659,0.182927
1548436964948,-0.883606,0.027771,0.549866,0.365854,-0.853659,0.182927
1548436964956,-0.883362,0.027039,0.550354,0.304878,-0.914634,0.182927
1548436964964,-0.881714,0.026062,0.552673,0.365854,-0.914634,0.121951
1548436964978,-0.880249,0.025513,0.552734,0.365854,-0.853659,0.121951
1548436964987,-0.880676,0.024963,0.556335,0.487805,-0.914634,0.121951
1548436964993,-0.882690,0.024292,0.557495,0.365854,-0.914634,0.060976
1548436965008,-0.882507,0.023254,0.557678,0.304878,-0.914634,0.182927
1548436965016,-0.882507,0.021179,0.555054,0.426829,-0.914634,0.182927
1548436965023,-0.881104,0.021667,0.557434,0.487805,-0.792683,0.121951
1548436965038,-0.882812,0.023376,0.558960,0.365854,-0.731707,0.182927
1548436965046,-0.880310,0.022339,0.555542,0.426829,-0.731707,0.243902
1548436965053,-0.877991,0.022278,0.553101,0.304878,-0.731707,0.243902
1548436965068,-0.881226,0.023621,0.552734,0.243902,-0.731707,0.304878
1548436965086,-0.879333,0.024841,0.553040,0.243902,-0.731707,0.365854
1548436965087,-0.880554,0.024231,0.552795,0.426829,-0.731707,0.243902
1548436965098,-0.881226,0.023376,0.550781,0.365854,-0.731707,0.243902
1548436965105,-0.881836,0.025940,0.549683,0.426829,-0.731707,0.365854
1548436965113,-0.880615,0.025757,0.549744,0.487805,-0.792683,0.304878
1548436965127,-0.880859,0.026367,0.553223,0.365854,-0.792683,0.243902
1548436965135,-0.883911,0.026367,0.553589,0.426829,-0.792683,0.304878
1548436965142,-0.881531,0.025452,0.554077,0.365854,-0.853659,0.182927
1548436965157,-0.882141,0.024841,0.555237,0.426829,-0.792683,0.243902
1548436965165,-0.881531,0.024658,0.555969,0.365854,-0.731707,0.243902
1548436965173,-0.879639,0.022888,0.555054,0.487805,-0.792683,0.243902
1548436965187,-0.881409,0.022278,0.554260,0.426829,-0.731707,0.304878
1548436965195,-0.880432,0.023743,0.555664,0.426829,-0.731707,0.304878
1548436965202,-0.882141,0.026917,0.554016,0.243902,-0.792683,0.182927
1548436965218,-0.882141,0.026733,0.556335,0.243902,-0.853659,0.243902
1548436965225,-0.879517,0.027100,0.553894,0.365854,-0.731707,0.182927
1548436965232,-0.880798,0.025635,0.551819,0.426829,-0.731707,0.182927
1548436965247,-0.879700,0.024353,0.552429,0.487805,-0.792683,0.182927
1548436965255,-0.880737,0.025330,0.550598,0.487805,-0.792683,0.182927
1548436965262,-0.881531,0.026489,0.551636,0.426829,-0.731707,0.121951
1548436965278,-0.881531,0.025146,0.554016,0.426829,-0.853659,0.060976
1548436965285,-0.880920,0.023804,0.554932,0.426829,-0.792683,0.060976
1548436965293,-0.881897,0.023132,0.555542,0.365854,-0.792683,0.182927
1548436965308,-0.882019,0.021179,0.553528,0.426829,-0.792683,0.182927
1548436965315,-0.880493,0.021851,0.556091,0.365854,-0.731707,0.243902
1548436965323,-0.882019,0.022217,0.558044,0.304878,-0.792683,0.182927
1548436965338,-0.880066,0.022766,0.554260,0.365854,-0.853659,0.182927
1548436965345,-0.879028,0.023071,0.553894,0.426829,-0.792683,0.243902
1548436965353,-0.881714,0.022339,0.556458,0.365854,-0.731707,0.304878
1548436965368,-0.882629,0.023621,0.553101,0.365854,-0.731707,0.243902
1548436965375,-0.880432,0.021851,0.550537,0.365854,-0.853659,0.304878
1548436965383,-0.882019,0.024597,0.551392,0.426829,-0.792683,0.243902
1548436965398,-0.881714,0.024902,0.551392,0.304878,-0.731707,0.243902
1548436965405,-0.881104,0.025696,0.551880,0.304878,-0.792683,0.243902
1548436965413,-0.882812,0.028137,0.552490,0.365854,-0.853659,0.243902
1548436965428,-0.880981,0.025330,0.553589,0.426829,-0.853659,0.182927
1548436965435,-0.879395,0.025574,0.555847,0.487805,-0.670732,0.182927
1548436965443,-0.879517,0.023865,0.555969,0.426829,-0.731707,0.182927
1548436965458,-0.880493,0.023804,0.553162,0.426829,-0.792683,0.121951
1548436965466,-0.882935,0.023682,0.552856,0.365854,-0.792683,0.182927
1548436965473,-0.882202,0.025452,0.554016,0.426829,-0.792683,0.182927
1548436965488,-0.881653,0.024963,0.552856,0.365854,-0.792683,0.182927
1548436965495,-0.882812,0.022400,0.554443,0.365854,-0.853659,0.121951
1548436965503,-0.881592,0.023804,0.553589,0.365854,-0.731707,0.121951
1548436965518,-0.879944,0.025818,0.554199,0.426829,-0.731707,0.243902
1548436965525,-0.880737,0.024536,0.553589,0.426829,-0.731707,0.243902
1548436965533,-0.880249,0.026062,0.551453,0.609756,-0.731707,0.243902
1548436965548,-0.882568,0.025513,0.553955,0.426829,-0.731707,0.243902
1548436965555,-0.882812,0.026184,0.553528,0.304878,-0.792683,0.182927
1548436965563,-0.882935,0.024048,0.550476,0.426829,-0.792683,0.121951
1548436965578,-0.882324,0.025818,0.554382,0.426829,-0.853659,0.060976
1548436965586,-0.882874,0.023865,0.554626,0.426829,-0.792683,0.060976
1548436965593,-0.883301,0.021179,0.554688,0.365854,-0.670732,0.121951
1548436965609,-0.881226,0.022278,0.554321,0.487805,-0.670732,0.182927
1548436965615,-0.879944,0.023499,0.554382,0.426829,-0.731707,0.304878
1548436965623,-0.881592,0.022156,0.555054,0.304878,-0.792683,0.182927
1548436965638,-0.880615,0.021729,0.556030,0.365854,-0.731707,0.182927
1548436965645,-0.879700,0.023560,0.554626,0.365854,-0.731707,0.243902
1548436965653,-0.880920,0.024109,0.551025,0.304878,-0.853659,0.243902
1548436965668,-0.882080,0.025574,0.549988,0.304878,-0.853659,0.243902
1548436965675,-0.882629,0.025391,0.550842,0.304878,-0.792683,0.243902
1548436965683,-0.881409,0.026184,0.552551,0.426829,-0.792683,0.243902
1548436965698,-0.880676,0.025818,0.550110,0.426829,-0.853659,0.182927
1548436965705,-0.883301,0.023743,0.553223,0.243902,-0.914634,0.243902
1548436965713,-0.883972,0.026245,0.554565,0.243902,-0.975610,0.121951
1548436965728,-0.881042,0.026367,0.556213,0.304878,-0.975610,0.121951
1548436965735,-0.880310,0.023926,0.556641,0.304878,-0.914634,0.121951
1548436965743,-0.879211,0.022888,0.558472,0.426829,-0.914634,0.182927
1548436965758,-0.879028,0.022156,0.558228,0.304878,-0.853659,0.121951
1548436965765,-0.881653,0.022095,0.558350,0.365854,-0.853659,0.182927
1548436965773,-0.882202,0.022583,0.555298,0.365854,-0.792683,0.243902
1548436965788,-0.880859,0.023132,0.555054,0.182927,-0.792683,0.243902
1548436965795,-0.881714,0.024963,0.554138,0.365854,-0.792683,0.182927
1548436965803,-0.881836,0.023132,0.554260,0.365854,-0.853659,0.121951
1548436965818,-0.883301,0.024963,0.556030,0.304878,-0.731707,0.243902
1548436965825,-0.881226,0.025513,0.554871,0.365854,-0.792683,0.243902
1548436965833,-0.879944,0.024292,0.552673,0.365854,-0.731707,0.182927
1548436965848,-0.878418,0.025146,0.552368,0.304878,-0.731707,0.121951
1548436965855,-0.878174,0.024048,0.554382,0.426829,-0.731707,0.243902
1548436965863,-0.880798,0.023254,0.555359,0.304878,-0.670732,0.243902
1548436965878,-0.880859,0.023376,0.555298,0.243902,-0.670732,0.182927
1548436965885,-0.880188,0.020996,0.556213,0.365854,-0.670732,0.243902
1548436965893,-0.880005,0.022034,0.556458,0.426829,-0.670732,0.182927
1548436965908,-0.881226,0.023804,0.552368,0.365854,-0.670732,0.243902
1548436965915,-0.882751,0.023499,0.553894,0.426829,-0.853659,0.182927
1548436965923,-0.879395,0.022827,0.552063,0.426829,-0.731707,0.243902
1548436965938,-0.879028,0.024231,0.552734,0.426829,-0.731707,0.243902
1548436965945,-0.878601,0.023132,0.553223,0.487805,-0.731707,0.365854
1548436965953,-0.880066,0.026245,0.551331,0.304878,-0.670732,0.243902
1548436965968,-0.883179,0.026306,0.553650,0.182927,-0.731707,0.304878
1548436965975,-0.882935,0.026489,0.554993,0.304878,-0.731707,0.365854
1548436965984,-0.882263,0.025574,0.556030,0.365854,-0.792683,0.243902
1548436965998,-0.883057,0.027161,0.555115,0.365854,-0.731707,0.304878
1548436966005,-0.880981,0.027649,0.555237,0.365854,-0.792683,0.243902
1548436966013,-0.880188,0.025757,0.553345,0.365854,-0.792683,0.243902
1548436966028,-0.882263,0.025330,0.554382,0.487805,-0.731707,0.243902
1548436966035,-0.878784,0.022888,0.555542,0.487805,-0.670732,0.243902
1548436966043,-0.880554,0.023315,0.554565,0.426829,-0.792683,0.243902
1548436966058,-0.881653,0.023743,0.554443,0.365854,-0.792683,0.182927
1548436966065,-0.880310,0.024597,0.553772,0.426829,-0.731707,0.243902
1548436966073,-0.880676,0.024170,0.553833,0.365854,-0.670732,0.243902
1548436966088,-0.880005,0.024109,0.552185,0.243902,-0.731707,0.243902
1548436966095,-0.881226,0.023315,0.551331,0.243902,-0.792683,0.243902
1548436966103,-0.883667,0.026062,0.550537,0.304878,-0.670732,0.243902
1548436966118,-0.877625,0.025269,0.552368,0.304878,-0.731707,0.121951
1548436966125,-0.878479,0.024658,0.553284,0.365854,-0.731707,0.182927
1548436966133,-0.880554,0.024780,0.555664,0.487805,-0.792683,0.243902
1548436966148,-0.881042,0.023071,0.554077,0.426829,-0.731707,0.182927
1548436966156,-0.878723,0.024536,0.554993,0.365854,-0.670732,0.182927
1548436966163,-0.882385,0.024841,0.552795,0.365854,-0.731707,0.243902
1548436966178,-0.883850,0.023560,0.554260,0.304878,-0.792683,0.243902
1548436966185,-0.883362,0.024292,0.556030,0.243902,-0.792683,0.182927
1548436966193,-0.882446,0.025085,0.556152,0.426829,-0.792683,0.182927
1548436966208,-0.880798,0.023926,0.554749,0.365854,-0.731707,0.182927
1548436966216,-0.880859,0.024719,0.554810,0.426829,-0.670732,0.304878
1548436966223,-0.878723,0.024353,0.554565,0.548781,-0.731707,0.304878
1548436966238,-0.879700,0.023926,0.553650,0.487805,-0.670732,0.243902
1548436966245,-0.881714,0.024292,0.553833,0.365854,-0.670732,0.182927
1548436966253,-0.879822,0.025574,0.553833,0.365854,-0.792683,0.182927
1548436966268,-0.883362,0.026367,0.551697,0.304878,-0.792683,0.243902
1548436966275,-0.881409,0.024719,0.554382,0.365854,-0.731707,0.182927
1548436966283,-0.880920,0.025879,0.551575,0.365854,-0.731707,0.182927
1548436966298,-0.878479,0.024353,0.552368,0.487805,-0.731707,0.243902
1548436966305,-0.880493,0.024902,0.552124,0.426829,-0.731707,0.182927
1548436966313,-0.882690,0.023315,0.552673,0.365854,-0.731707,0.182927
1548436966328,-0.882324,0.022095,0.554016,0.426829,-0.731707,0.243902
1548436966335,-0.880249,0.022034,0.554688,0.426829,-0.731707,0.182927
1548436966343,-0.882385,0.023682,0.554565,0.365854,-0.731707,0.182927
1548436966358,-0.881714,0.024109,0.554077,0.304878,-0.792683,0.182927
1548436966365,-0.879944,0.024963,0.554688,0.243902,-0.731707,0.243902
1548436966373,-0.879883,0.026489,0.556030,0.365854,-0.792683,0.243902
1548436966388,-0.881836,0.024963,0.557129,0.304878,-0.670732,0.182927
1548436966396,-0.883545,0.026489,0.554749,0.304878,-0.792683,0.182927
1548436966403,-0.882385,0.026733,0.550842,0.426829,-0.853659,0.243902
1548436966418,-0.878723,0.027405,0.550598,0.487805,-0.792683,0.243902
1548436966425,-0.878479,0.025696,0.549866,0.365854,-0.792683,0.121951
1548436966433,-0.878845,0.023682,0.549438,0.426829,-0.792683,0.121951
1548436966448,-0.877991,0.024902,0.549500,0.426829,-0.853659,0.060976
1548436966455,-0.880737,0.025513,0.552551,0.304878,-0.853659,-0.060976
1548436966463,-0.881104,0.024841,0.553284,0.243902,-0.853659,-0.060976
1548436966478,-0.882202,0.023254,0.557129,0.304878,-0.853659,0.060976
1548436966485,-0.884460,0.025085,0.556519,0.243902,-0.853659,0.121951
1548436966493,-0.883057,0.022644,0.554016,0.304878,-0.975610,0.182927
1548436966509,-0.881165,0.020203,0.557617,0.182927,-0.853659,0.182927
1548436966515,-0.881714,0.022400,0.558533,0.243902,-0.853659,0.243902
1548436966523,-0.879517,0.023682,0.557617,0.365854,-0.792683,0.243902
1548436966538,-0.880920,0.024536,0.557983,0.304878,-0.731707,0.243902
1548436966545,-0.879822,0.022095,0.555847,0.365854,-0.731707,0.304878
1548436966553,-0.880066,0.026184,0.555725,0.304878,-0.731707,0.243902
1548436966568,-0.879822,0.025024,0.553955,0.304878,-0.731707,0.304878
1548436966575,-0.880371,0.023987,0.553833,0.365854,-0.731707,0.365854
1548436966583,-0.881470,0.025879,0.553467,0.365854,-0.792683,0.304878
1548436966598,-0.882080,0.025452,0.549927,0.365854,-0.731707,0.304878
1548436966605,-0.882385,0.026306,0.550964,0.243902,-0.792683,0.304878
1548436966613,-0.880798,0.025452,0.553040,0.365854,-0.731707,0.304878
1548436966628,-0.880310,0.024719,0.554199,0.365854,-0.731707,0.243902
1548436966635,-0.881287,0.024414,0.552490,0.365854,-0.731707,0.304878
1548436966642,-0.880127,0.025513,0.555908,0.365854,-0.792683,0.304878
1548436966658,-0.880554,0.023254,0.555420,0.487805,-0.853659,0.304878
1548436966665,-0.882202,0.022095,0.555725,0.426829,-0.792683,0.243902
1548436966673,-0.881470,0.026001,0.556091,0.304878,-0.792683,0.243902
1548436966688,-0.881714,0.024475,0.555969,0.182927,-0.792683,0.243902
1548436966695,-0.882751,0.026123,0.555054,0.243902,-0.792683,0.182927
1548436966703,-0.882935,0.027832,0.555725,0.304878,-0.792683,0.182927
1548436966717,-0.881042,0.025024,0.557617,0.304878,-0.792683,0.243902
1548436966725,-0.878113,0.025391,0.556274,0.426829,-0.792683,0.243902
1548436966732,-0.877930,0.024475,0.554260,0.365854,-0.792683,0.243902
1548436966747,-0.881470,0.023865,0.557129,0.426829,-0.670732,0.182927
1548436966755,-0.881775,0.025696,0.554626,0.426829,-0.853659,0.243902
1548436966762,-0.880920,0.023987,0.554321,0.365854,-0.792683,0.243902
1548436966777,-0.882690,0.023743,0.553589,0.304878,-0.731707,0.182927
1548436966785,-0.882874,0.024536,0.553162,0.365854,-0.670732,0.243902
1548436966792,-0.881592,0.023621,0.551392,0.304878,-0.731707,0.243902
1548436966807,-0.879700,0.024109,0.552734,0.365854,-0.731707,0.304878
1548436966815,-0.879944,0.024109,0.552734,0.426829,-0.792683,0.243902
1548436966823,-0.880859,0.023743,0.552246,0.426829,-0.731707,0.182927
1548436966838,-0.878540,0.023132,0.555176,0.426829,-0.853659,0.304878
1548436966846,-0.880066,0.023071,0.555420,0.426829,-0.792683,0.304878
1548436966853,-0.881165,0.024414,0.553040,0.304878,-0.792683,0.304878
1548436966868,-0.881958,0.026123,0.552795,0.182927,-0.853659,0.365854
1548436966876,-0.881042,0.028503,0.555420,0.304878,-0.914634,0.304878
1548436966884,-0.880005,0.027344,0.556702,0.365854,-0.853659,0.182927
1548436966898,-0.881531,0.027771,0.554565,0.304878,-0.792683,0.243902
1548436966906,-0.882690,0.027283,0.555176,0.365854,-0.731707,0.182927
1548436966914,-0.880066,0.026733,0.553223,0.548781,-0.670732,0.182927
1548436966928,-0.880859,0.025879,0.553955,0.609756,-0.731707,0.121951
1548436966935,-0.877869,0.024475,0.555969,0.548781,-0.792683,0.060976
1548436966943,-0.881714,0.024536,0.552734,0.487805,-0.731707,0.060976
1548436966958,-0.881714,0.025146,0.553040,0.487805,-0.792683,0.121951
1548436966965,-0.882568,0.022644,0.552979,0.426829,-0.853659,0.060976
1548436966973,-0.882080,0.022217,0.554199,0.426829,-0.792683,0.060976
1548436966988,-0.881897,0.022888,0.552490,0.426829,-0.792683,0.060976
1548436966995,-0.881042,0.022522,0.554993,0.304878,-0.731707,0.121951
1548436967003,-0.879089,0.021362,0.553223,0.426829,-0.853659,0.182927
1548436967018,-0.881775,0.022278,0.553284,0.426829,-0.853659,0.243902
1548436967025,-0.879883,0.022400,0.551514,0.487805,-0.731707,0.182927
1548436967033,-0.878418,0.023621,0.552368,0.426829,-0.792683,0.243902
1548436967048,-0.881287,0.024902,0.551025,0.365854,-0.792683,0.182927
1548436967055,-0.881897,0.022949,0.553345,0.487805,-0.731707,0.243902
1548436967063,-0.878235,0.023987,0.553894,0.365854,-0.792683,0.304878
1548436967078,-0.878967,0.022522,0.554688,0.304878,-0.731707,0.304878
1548436967085,-0.881042,0.025452,0.553955,0.365854,-0.731707,0.243902
1548436967093,-0.881714,0.026367,0.555847,0.304878,-0.853659,0.243902
1548436967108,-0.882874,0.026245,0.553711,0.365854,-0.853659,0.243902
1548436967115,-0.881653,0.026001,0.552307,0.365854,-0.792683,0.243902
1548436967123,-0.877869,0.025269,0.552307,0.426829,-0.792683,0.243902
1548436967138,-0.877136,0.024597,0.552429,0.426829,-0.731707,0.243902
1548436967146,-0.879700,0.025574,0.553894,0.365854,-0.853659,0.243902
1548436967153,-0.880005,0.025391,0.553101,0.243902,-0.853659,0.182927
1548436967168,-0.884277,0.025879,0.552063,0.182927,-0.853659,0.121951
1548436967175,-0.881287,0.026794,0.553162,0.365854,-0.914634,0.182927
1548436967183,-0.881958,0.025513,0.557251,0.426829,-0.975610,0.182927
1548436967197,-0.882202,0.024719,0.558716,0.365854,-0.914634,0.121951
1548436967213,-0.880920,0.023926,0.556458,0.304878,-0.792683,0.121951
1548436967220,-0.880920,0.021790,0.555115,0.304878,-0.853659,0.121951
1548436967227,-0.881226,0.022461,0.554565,0.304878,-0.853659,0.182927
1548436967235,-0.882324,0.023193,0.555237,0.365854,-0.853659,0.182927
1548436967242,-0.879517,0.022034,0.555847,0.365854,-0.853659,0.243902
1548436967265,-0.878723,0.021057,0.555908,0.365854,-0.731707,0.304878
1548436967265,-0.880493,0.021484,0.554688,0.304878,-0.792683,0.243902
1548436967272,-0.880066,0.021667,0.556213,0.243902,-0.792683,0.243902
1548436967287,-0.880981,0.025879,0.553406,0.243902,-0.670732,0.304878
1548436967295,-0.879150,0.024292,0.551025,0.243902,-0.731707,0.426829
1548436967302,-0.882019,0.023987,0.548767,0.365854,-0.731707,0.365854
1548436967318,-0.882263,0.025391,0.552673,0.426829,-0.731707,0.365854
1548436967325,-0.879395,0.025208,0.554443,0.426829,-0.792683,0.243902
1548436967332,-0.879395,0.024902,0.553955,0.365854,-0.670732,0.304878
1548436967348,-0.879211,0.024048,0.552856,0.304878,-0.731707,0.365854
1548436967355,-0.879639,0.024475,0.553406,0.365854,-0.792683,0.243902
1548436967364,-0.883606,0.023926,0.554077,0.426829,-0.853659,0.304878
1548436967378,-0.882874,0.024658,0.555481,0.365854,-0.792683,0.304878
1548436967393,-0.881226,0.023010,0.554077,0.304878,-0.670732,0.365854
1548436967394,-0.881104,0.024780,0.553101,0.365854,-0.731707,0.304878
1548436967409,-0.880676,0.023987,0.555481,0.243902,-0.853659,0.243902
1548436967416,-0.880859,0.024841,0.555786,0.304878,-0.731707,0.304878
1548436967423,-0.881775,0.024780,0.555115,0.426829,-0.731707,0.304878
1548436967439,-0.878723,0.028198,0.556580,0.365854,-0.792683,0.426829
1548436967446,-0.880859,0.029541,0.554077,0.304878,-0.670732,0.365854
1548436967455,-0.883057,0.031250,0.554077,0.243902,-0.731707,0.304878
1548436967469,-0.884399,0.034973,0.554810,0.548781,-0.792683,0.365854
1548436967476,-0.885376,0.040955,0.558655,0.792683,-0.853659,0.182927
1548436967484,-0.884827,0.043579,0.559814,0.670732,-0.731707,0.304878
1548436967498,-0.886292,0.043335,0.558167,0.731707,-0.487805,0.548781
1548436967506,-0.884949,0.037170,0.557068,1.524390,-0.792683,0.731707
1548436967513,-0.884399,0.031616,0.557617,1.890244,-0.670732,1.036585
1548436967528,-0.885254,0.028503,0.555298,1.890244,-0.426829,1.158537
1548436967536,-0.883545,0.024780,0.555298,1.951220,-0.304878,1.158537
1548436967543,-0.882141,0.018433,0.558167,2.682927,-0.365854,0.914634
1548436967558,-0.883240,0.012878,0.556580,3.170732,-0.182927,0.670732
1548436967565,-0.877686,0.007385,0.553345,3.353659,-0.243902,0.670732
1548436967573,-0.873901,0.005432,0.548523,2.987805,-0.609756,0.914634
1548436967588,-0.874268,0.006409,0.548462,2.317073,-0.609756,0.914634
1548436967596,-0.876038,0.010437,0.552002,1.646341,-0.548781,0.853659
1548436967603,-0.877014,0.016968,0.555054,0.975610,-0.548781,0.731707
1548436967619,-0.879578,0.019165,0.552673,0.609756,-0.670732,0.548781
1548436967627,-0.884949,0.020630,0.551453,0.792683,-0.670732,0.548781
1548436967633,-0.884033,0.021973,0.549500,1.036585,-0.731707,0.670732
1548436967648,-0.883667,0.027832,0.548889,0.670732,-0.731707,0.792683
1548436967655,-0.881592,0.031799,0.549438,0.243902,-0.609756,0.975610
1548436967693,-0.881592,0.031006,0.548218,0.304878,-0.670732,0.975610
1548436967706,-0.879639,0.031250,0.546875,0.365854,-0.731707,0.853659
1548436967709,-0.875854,0.033325,0.549988,0.182927,-0.609756,0.670732
1548436967712,-0.874817,0.032776,0.551880,0.000000,-0.609756,0.548781
1548436967713,-0.877319,0.036743,0.552856,-0.060976,-0.670732,0.304878
1548436967715,-0.878845,0.037659,0.549683,-0.182927,-0.792683,0.060976
1548436967725,-0.881348,0.035767,0.551331,-0.182927,-0.975610,-0.243902
1548436967742,-0.882446,0.036743,0.550415,-0.060976,-1.036585,-0.365854
1548436967751,-0.882446,0.036682,0.554688,0.060976,-0.975610,-0.487805
1548436967758,-0.882629,0.033936,0.555969,0.121951,-0.914634,-0.670732
1548436967768,-0.882751,0.030579,0.553040,0.000000,-0.853659,-0.670732
1548436967775,-0.881287,0.028625,0.551819,0.182927,-0.853659,-0.731707
1548436967782,-0.880920,0.027100,0.553467,0.182927,-0.792683,-0.609756
1548436967802,-0.881042,0.025146,0.554260,0.000000,-0.792683,-0.548781
1548436967806,-0.879761,0.027893,0.556641,-0.182927,-0.731707,-0.670732
1548436967827,-0.880371,0.025879,0.552246,-0.304878,-0.731707,-0.670732
1548436967829,-0.883362,0.019592,0.550781,-0.182927,-0.792683,-0.731707
1548436967835,-0.881042,0.018311,0.549683,0.121951,-0.792683,-0.609756
1548436967843,-0.880188,0.018311,0.550232,0.243902,-0.914634,-0.365854
1548436967860,-0.881104,0.018616,0.553162,-0.060976,-0.853659,-0.304878
1548436967865,-0.882446,0.018494,0.554260,-0.304878,-0.853659,-0.304878
1548436967873,-0.881165,0.018982,0.556335,-0.243902,-0.914634,-0.121951
1548436967888,-0.883972,0.015808,0.555359,-0.304878,-0.853659,0.060976
1548436967895,-0.883179,0.019775,0.559753,-0.121951,-0.731707,0.182927
1548436967902,-0.881836,0.021179,0.559875,-0.121951,-0.853659,0.365854
1548436967917,-0.880554,0.020081,0.558105,-0.121951,-0.853659,0.487805
1548436967925,-0.879211,0.021667,0.554443,0.000000,-0.792683,0.609756
1548436967932,-0.879456,0.021118,0.555603,0.121951,-0.792683,0.609756
1548436967947,-0.882996,0.024109,0.556885,0.060976,-0.731707,0.548781
1548436967955,-0.880920,0.026611,0.554382,0.060976,-0.670732,0.670732
1548436967962,-0.881409,0.025879,0.557922,0.000000,-0.670732,0.609756
1548436967977,-0.883118,0.025696,0.557922,-0.060976,-0.731707,0.609756
1548436967985,-0.883240,0.028320,0.558777,-0.060976,-0.670732,0.731707
1548436967992,-0.884705,0.031006,0.556946,-0.243902,-0.548781,0.670732
1548436968008,-0.882080,0.030762,0.556641,-0.304878,-0.487805,0.609756
1548436968015,-0.882263,0.028748,0.555542,-0.304878,-0.426829,0.609756
1548436968023,-0.882263,0.028687,0.557922,-0.121951,-0.365854,0.609756
1548436968038,-0.885803,0.027405,0.560181,-0.121951,-0.365854,0.548781
1548436968045,-0.885559,0.028503,0.557983,-0.243902,-0.243902,0.548781
1548436968055,-0.884155,0.030090,0.557434,-0.243902,0.000000,0.426829
1548436968068,-0.882324,0.028809,0.560791,-0.365854,-0.121951,0.365854
1548436968075,-0.885315,0.027466,0.561951,-0.426829,0.000000,0.304878
1548436968083,-0.888062,0.026062,0.561890,-0.426829,0.060976,0.365854
1548436968098,-0.890442,0.026855,0.562561,-0.426829,0.182927,0.365854
1548436968108,-0.891113,0.025330,0.561401,-0.487805,0.365854,0.243902
1548436968113,-0.890442,0.022095,0.559998,-0.670732,0.670732,0.243902
1548436968128,-0.889160,0.023376,0.557617,-0.670732,0.853659,0.365854
1548436968135,-0.888977,0.022644,0.557251,-0.609756,0.975610,0.426829
1548436968143,-0.894714,0.023682,0.557190,-0.487805,1.097561,0.548781
1548436968158,-0.899841,0.023071,0.556946,-0.487805,1.524390,0.670732
1548436968165,-0.902771,0.019409,0.560669,-0.426829,2.012195,0.670732
1548436968173,-0.907166,0.018066,0.559326,-0.426829,2.439024,0.731707
1548436968189,-0.908875,0.021057,0.558899,-0.182927,2.987805,0.792683
1548436968195,-0.912781,0.020508,0.560974,-0.182927,3.475610,0.975610
1548436968203,-0.912231,0.021606,0.560974,-0.426829,3.963415,1.158537
1548436968219,-0.910950,0.025146,0.563232,-0.670732,4.634146,1.402439
1548436968225,-0.907043,0.032043,0.556580,-0.731707,5.121951,1.585366
1548436968233,-0.906555,0.034729,0.555542,-0.670732,5.548780,1.585366
1548436968248,-0.911499,0.033264,0.558167,-0.365854,5.975610,1.646341
1548436968256,-0.925049,0.030762,0.557678,-0.060976,6.585366,1.585366
1548436968262,-0.938721,0.024414,0.560486,0.914634,7.317073,1.402439
1548436968278,-0.947144,0.024048,0.564636,2.743902,8.536586,1.097561
1548436968285,-0.961731,0.024963,0.569580,3.658537,9.878049,0.609756
1548436968293,-0.970886,0.033508,0.559448,2.439024,11.646341,0.182927
1548436968308,-0.965942,0.038940,0.557007,1.402439,13.597561,-0.121951
1548436968315,-0.948914,0.044067,0.554871,0.609756,15.609756,-0.365854
1548436968322,-0.936584,0.051697,0.551331,0.914634,17.500000,-0.731707
1548436968338,-0.930359,0.050842,0.542542,2.317073,18.475611,-0.975610
1548436968345,-0.923950,0.045837,0.531677,3.658537,19.207317,-0.792683
1548436968353,-0.911926,0.036133,0.522766,4.573171,19.817074,-0.365854
1548436968368,-0.900635,0.030579,0.518250,4.756098,20.304878,0.060976
1548436968375,-0.899841,0.027405,0.507324,4.878049,20.609756,0.426829
1548436968382,-0.899048,0.019226,0.498047,5.060976,20.609756,0.670732
1548436968398,-0.895081,0.017822,0.494019,4.085366,21.036587,0.914634
1548436968406,-0.896362,0.014832,0.492065,2.500000,21.524391,1.280488
1548436968413,-0.904724,0.017029,0.486206,1.463415,22.195122,1.524390
1548436968428,-0.911499,0.019836,0.484558,0.000000,22.926830,1.829268
1548436968435,-0.919373,0.024963,0.487793,-2.560976,23.536587,2.378049
1548436968442,-0.927002,0.028687,0.480835,-4.146341,24.085367,3.048780
1548436968458,-0.936646,0.030396,0.483643,-3.719512,24.573172,3.719512
1548436968465,-0.946594,0.030396,0.484680,-2.743902,24.695122,4.085366
1548436968473,-0.947083,0.030518,0.481750,-1.585366,24.939026,4.451220
1548436968488,-0.941956,0.028076,0.477905,-0.792683,25.365854,4.695122
1548436968495,-0.943115,0.026733,0.475159,-0.487805,26.280489,4.512195
1548436968502,-0.946655,0.019165,0.459961,0.914634,28.048780,4.085366
1548436968518,-0.952393,0.006958,0.437378,2.987805,29.939026,3.414634
1548436968525,-0.955261,-0.003662,0.415222,4.024390,31.890245,2.987805
1548436968532,-0.947144,-0.011536,0.387573,3.048780,34.512196,3.048780
1548436968548,-0.931396,-0.012634,0.358459,0.975610,37.439026,3.719512
1548436968555,-0.912964,-0.012512,0.321838,-1.768293,40.670734,5.243903
1548436968563,-0.905823,-0.010803,0.298096,-4.817073,44.085365,7.926829
1548436968585,-0.904236,-0.007874,0.291565,-7.743903,47.378052,10.792684
1548436968586,-0.947205,0.010559,0.298401,-11.524390,51.463417,13.658537
1548436968593,-1.042419,0.038086,0.353149,-13.719513,55.365856,15.670732
1548436968615,-1.106445,0.068237,0.439087,-15.853659,61.158539,16.280489
1548436968616,-1.020691,0.093323,0.447144,-18.597561,67.743904,17.256098
1548436968623,-0.895813,0.101501,0.390808,-19.939024,66.646339,19.024391
1548436968638,-0.823364,0.068787,0.350769,-15.975610,56.646343,20.670732
1548436968645,-0.806824,0.017273,0.328064,-9.390244,48.719513,21.829269
1548436968652,-0.854980,-0.008179,0.333862,-6.036585,45.000000,21.890244
1548436968668,-0.917297,0.005859,0.355774,-9.207317,41.585365,19.390244
1548436968675,-0.936218,0.014343,0.355225,-15.487805,40.182926,13.963415
1548436968683,-0.918091,0.037659,0.294678,-18.231709,38.597561,11.524390
1548436968697,-1.041809,0.088013,0.238342,-20.000000,36.402439,11.707317
1548436968705,-1.093689,0.133911,0.224060,-17.134148,37.134148,11.341464
1548436968713,-0.954102,0.174500,0.171753,-12.439025,46.768295,10.304878
1548436968728,-0.997620,0.155945,0.150085,-6.036585,55.914635,10.670732
1548436968737,-0.841675,0.090759,0.168213,2.378049,55.304878,8.658537
1548436968743,-0.694702,0.038879,0.112549,10.304878,61.097561,8.109756
1548436968758,-0.725586,0.017090,0.053162,9.878049,58.902439,9.451220
1548436968765,-0.760559,0.023193,0.078186,5.060976,53.536587,7.865854
1548436968773,-0.753662,0.077271,0.098389,-5.000000,54.207317,7.134147
1548436968788,-0.740234,0.153503,0.123352,-16.158537,54.207317,8.353659
1548436968796,-0.729919,0.185425,0.163086,-18.475611,51.036587,8.170732
1548436968803,-0.723389,0.183838,0.177246,-11.951220,47.195122,6.890244
1548436968818,-0.724365,0.162048,0.168396,0.365854,45.060978,5.975610
1548436968832,-0.736633,0.128479,0.154358,13.719513,43.475613,5.121951
1548436968833,-0.751343,0.086792,0.138000,23.292683,41.219513,4.024390
1548436968848,-0.758179,0.061096,0.128723,27.621952,39.146343,2.987805
1548436968862,-0.764221,0.049744,0.135132,27.073172,36.829269,2.317073
1548436968863,-0.773621,0.045532,0.156372,22.500000,34.085365,2.195122
1548436968878,-0.794189,0.058716,0.195068,16.646341,30.548780,2.439024
1548436968885,-0.823486,0.088501,0.217102,11.219512,27.073172,2.560976
1548436968893,-0.861755,0.116272,0.234314,7.621952,23.963415,2.804878
1548436968908,-0.893982,0.113037,0.248535,7.317073,20.914635,3.475610
1548436968915,-0.916687,0.111084,0.256287,11.280488,17.804878,4.329268
1548436968924,-0.929199,0.108276,0.259155,18.048780,15.243903,5.487805
1548436968938,-0.943542,0.107788,0.251953,24.024391,13.719513,6.341464
1548436968953,-0.962830,0.104248,0.247498,28.414635,11.890244,6.158537
1548436968953,-0.986755,0.104492,0.243958,31.463415,9.878049,5.365854
1548436968968,-1.017944,0.108276,0.244690,33.414635,8.353659,4.207317
1548436968975,-1.040100,0.112549,0.234619,34.512196,7.317073,2.682927
1548436968983,-1.052734,0.113464,0.213745,36.219513,6.829268,0.792683
1548436968998,-1.052856,0.108826,0.190613,39.451221,6.341464,-1.219512
1548436969005,-1.031006,0.088562,0.169434,43.353661,5.731708,-3.414634
1548436969013,-1.120117,0.119995,0.195496,46.646343,5.243903,-5.365854
1548436969027,-1.131348,0.139404,0.178101,46.036587,3.902439,-6.768293
1548436969035,-1.119690,0.138489,0.159973,45.365856,7.134147,-8.963415
1548436969050,-1.129456,0.135559,0.154785,47.865856,8.292683,-11.768293
1548436969058,-1.150574,0.121155,0.145569,51.524391,7.987805,-13.597561
1548436969065,-1.173828,0.118347,0.138428,54.634148,7.317073,-15.060976
1548436969073,-1.194336,0.107971,0.136597,57.256100,7.560976,-15.914635
1548436969088,-1.317627,0.051392,0.060669,58.719513,7.926829,-16.768293
1548436969095,-1.580750,0.016479,0.112610,60.182930,6.951220,-17.621952
1548436969103,-1.688232,0.100769,-0.041931,56.707317,8.231708,-19.512196
1548436969118,-1.555054,0.096130,-0.207825,37.500000,51.036587,-15.975610
1548436969125,-1.388184,0.078857,-0.052307,35.548782,50.426830,-10.487805
1548436969133,-1.210815,0.099060,0.010193,34.329269,38.414635,-5.121951
1548436969147,-1.051086,0.098999,0.136658,15.792684,39.756100,-0.670732
1548436969155,-0.940796,0.090088,0.261353,-1.585366,28.231709,-0.182927
1548436969170,-0.945740,0.093384,0.290161,-10.182927,7.256098,-0.792683
1548436969185,-1.075439,0.122437,0.223694,-5.670732,-11.402439,-0.304878
1548436969186,-1.141968,0.141968,0.104797,10.000000,-17.926830,-0.792683
1548436969193,-1.152954,0.114807,0.010803,29.207317,-11.890244,-2.439024
1548436969208,-1.127136,0.065918,-0.029846,42.682926,-4.695122,-3.414634
1548436969215,-1.086792,0.052490,-0.006104,45.060978,1.829268,-2.804878
1548436969222,-1.045898,0.063477,0.022034,39.146343,6.829268,-2.195122
1548436969237,-1.015747,0.066650,0.034241,32.134148,10.304878,-2.682927
1548436969245,-1.005066,0.078735,0.044617,27.926830,12.012196,-4.146341
1548436969252,-1.004456,0.078613,0.047180,23.719513,12.987805,-6.219512
1548436969267,-1.017639,0.066895,0.035767,16.890244,13.170732,-8.353659
1548436969275,-1.025146,0.056030,0.031860,11.158537,12.560976,-9.878049
1548436969282,-1.022888,0.046753,0.035706,8.353659,13.109756,-10.060976
1548436969297,-1.015137,0.044006,0.046936,7.195122,14.024390,-9.024390
1548436969305,-1.005066,0.034668,0.063843,7.500000,14.329268,-7.317073
1548436969312,-0.989685,0.017029,0.070557,8.780488,12.804878,-5.670732
1548436969327,-0.974243,0.011108,0.068909,9.451220,10.182927,-3.841464
1548436969335,-0.963013,0.033081,0.065369,8.658537,7.865854,-1.707317
1548436969342,-0.978943,0.061523,0.065796,6.707317,6.585366,0.487805
1548436969358,-1.010559,0.091675,0.055908,3.963415,6.158537,1.768293
1548436969365,-1.052856,0.107361,0.035217,2.134146,6.158537,2.073171
1548436969373,-1.092896,0.107300,0.020264,2.378049,5.670732,1.707317
1548436969388,-1.125183,0.096191,0.014648,4.512195,5.121951,1.036585
1548436969395,-1.137390,0.076477,0.014771,6.768293,5.000000,0.365854
1548436969402,-1.135193,0.058716,0.017822,8.048780,4.939024,0.000000
1548436969418,-1.123108,0.047546,0.018677,7.621952,4.390244,-0.121951
1548436969425,-1.105591,0.050537,0.028809,5.304878,3.048780,-0.121951
1548436969433,-1.098389,0.071960,0.043884,2.134146,1.402439,0.182927
1548436969448,-1.102783,0.089966,0.056091,-0.548781,0.365854,0.609756
1548436969455,-1.115845,0.094482,0.056030,-1.524390,-0.243902,0.914634
1548436969462,-1.118591,0.092285,0.048462,0.975610,-1.280488,1.158537
1548436969478,-1.113586,0.084534,0.043396,5.121951,-2.317073,1.341463
1548436969485,-1.103027,0.077454,0.047729,8.109756,-2.987805,1.463415
1548436969493,-1.086853,0.067444,0.048828,9.695122,-3.414634,1.707317
1548436969508,-1.068787,0.061401,0.045959,10.060976,-3.902439,1.829268
1548436969515,-1.049377,0.056763,0.042542,9.268292,-4.512195,2.073171
1548436969522,-1.029907,0.059631,0.044006,7.621952,-5.000000,2.317073
1548436969537,-1.016602,0.063782,0.051941,5.609756,-5.060976,2.560976
1548436969545,-1.018066,0.066406,0.059143,3.414634,-5.121951,2.682927
1548436969553,-1.025146,0.070679,0.060486,2.012195,-4.939024,2.804878
1548436969568,-1.034851,0.073364,0.061096,1.646341,-4.695122,3.048780
1548436969575,-1.044006,0.074951,0.056763,2.012195,-4.634146,3.292683
1548436969583,-1.047180,0.073242,0.054626,2.317073,-5.121951,3.475610
1548436969598,-1.044922,0.064819,0.056519,2.804878,-5.792683,3.841464
1548436969605,-1.045593,0.060120,0.056091,3.109756,-6.402439,4.146341
1548436969612,-1.054077,0.051025,0.051147,3.414634,-7.073171,4.512195
1548436969628,-1.078979,0.015015,0.060059,3.292683,-7.987805,4.817073
1548436969635,-1.068604,0.029846,0.049377,0.243902,-10.426829,4.756098
1548436969642,-1.063782,0.061218,0.037476,-3.841464,-12.134147,4.878049
1548436969665,-1.065430,0.067810,0.029297,-3.597561,-10.853659,5.914634
1548436969665,-1.061768,0.066956,0.019897,-2.987805,-9.512196,6.707317
1548436969673,-1.050171,0.072510,0.017883,-3.048780,-8.048780,5.914634
1548436969688,-1.044250,0.072693,0.028870,-2.560976,-6.097561,4.390244
1548436969695,-1.046753,0.073669,0.039001,-3.414634,-5.243903,3.292683
1548436969703,-1.052124,0.083191,0.036194,-4.756098,-5.243903,2.256098
1548436969718,-1.053528,0.092041,0.032654,-4.390244,-4.512195,1.097561
1548436969725,-1.055420,0.096191,0.035400,-2.987805,-3.231707,-0.243902
1548436969732,-1.060486,0.100952,0.044067,-1.707317,-2.256098,-1.280488
1548436969748,-1.058960,0.096680,0.051086,0.000000,-1.890244,-2.317073
1548436969755,-1.053284,0.087219,0.055359,2.073171,-1.768293,-3.231707
1548436969762,-1.045471,0.080383,0.059326,4.268293,-1.890244,-3.963415
1548436969778,-1.043335,0.077454,0.061768,5.731708,-2.256098,-4.695122
1548436969785,-1.040833,0.077637,0.059814,6.585366,-2.682927,-5.060976
1548436969793,-1.040466,0.076965,0.056396,6.768293,-2.743902,-5.060976
1548436969808,-1.036072,0.075378,0.052979,6.219512,-2.439024,-4.695122
1548436969815,-1.033447,0.070923,0.053589,5.548780,-1.951220,-4.268293
1548436969823,-1.033508,0.069153,0.059570,4.512195,-1.463415,-3.719512
1548436969837,-1.031250,0.071716,0.062195,3.414634,-1.280488,-3.048780
1548436969845,-1.031128,0.076599,0.064453,2.621951,-1.158537,-2.378049
1548436969852,-1.033325,0.079895,0.060486,1.646341,-1.097561,-1.707317
1548436969867,-1.035645,0.084045,0.055176,0.853659,-1.219512,-1.097561
1548436969875,-1.037415,0.084839,0.050964,0.487805,-1.341463,-0.548781
1548436969883,-1.036804,0.080444,0.046753,0.426829,-1.341463,0.121951
1548436969897,-1.038635,0.081055,0.046570,0.609756,-0.914634,0.487805
1548436969906,-1.033325,0.080872,0.044189,1.341463,0.365854,0.792683
1548436969912,-1.032471,0.082275,0.044983,1.768293,1.585366,0.975610
1548436969927,-1.028748,0.084290,0.044800,1.829268,2.743902,0.914634
1548436969935,-1.019714,0.084229,0.044983,1.707317,3.719512,0.792683
1548436969943,-1.012207,0.081116,0.062927,1.402439,4.573171,0.670732
1548436969958,-1.005127,0.082886,0.084473,1.707317,5.121951,0.548781
1548436969965,-1.007141,0.076721,0.100830,1.158537,2.987805,0.304878
1548436969973,-1.022888,0.070679,0.106750,0.000000,-0.853659,-0.060976
1548436969988,-1.041077,0.077209,0.093628,-0.426829,-5.609756,-0.487805
1548436969995,-1.059265,0.089172,0.067078,0.487805,-9.146341,-0.670732
1548436970003,-1.070007,0.094055,0.046143,2.926829,-10.182927,-0.487805
1548436970017,-1.070068,0.089478,0.034424,5.548780,-8.963415,-0.243902
1548436970025,-1.060730,0.088013,0.038574,6.768293,-6.646342,-0.243902
1548436970033,-1.051941,0.088440,0.043518,7.134147,-4.573171,-0.426829
1548436970048,-1.045227,0.087463,0.045898,7.378049,-3.658537,-0.853659
1548436970055,-1.037598,0.082703,0.045166,7.865854,-3.658537,-1.158537
1548436970063,-1.035156,0.076233,0.041138,7.560976,-4.024390,-1.097561
1548436970078,-1.031128,0.077698,0.038086,5.853659,-4.268293,-1.097561
1548436970085,-1.028015,0.081177,0.044495,4.451220,-3.963415,-0.975610
1548436970093,-1.028503,0.080750,0.048584,3.292683,-3.353659,-0.731707
1548436970108,-1.028259,0.079773,0.052185,2.378049,-2.987805,-0.304878
1548436970115,-1.028015,0.075989,0.055481,2.500000,-2.865854,0.121951
1548436970123,-1.026672,0.069885,0.051453,2.926829,-3.048780,0.426829
1548436970137,-1.026062,0.064148,0.041138,3.292683,-2.987805,0.792683
1548436970145,-1.024658,0.064758,0.044800,3.475610,-2.378049,0.914634
1548436970152,-1.024597,0.062927,0.052856,2.682927,-0.914634,0.853659
1548436970168,-1.030823,0.066956,0.057617,0.548781,-0.548781,0.792683
1548436970175,-1.033752,0.070740,0.060608,-1.036585,-1.036585,0.731707
1548436970183,-1.039734,0.073059,0.058289,-0.914634,-1.402439,0.792683
1548436970197,-1.039734,0.072021,0.054565,0.304878,-1.280488,0.731707
1548436970205,-1.038086,0.072144,0.055603,1.646341,-1.097561,0.792683
1548436970212,-1.033630,0.070801,0.060425,2.256098,-0.853659,0.914634
1548436970228,-1.035156,0.070618,0.064514,2.317073,-0.426829,0.914634
1548436970236,-1.034363,0.071777,0.063721,2.073171,0.000000,0.792683
1548436970242,-1.038208,0.074524,0.064270,2.012195,0.243902,0.731707
1548436970257,-1.044006,0.076538,0.063721,1.890244,0.304878,0.609756
1548436970265,-1.048035,0.080261,0.061340,1.646341,0.304878,0.548781
1548436970275,-1.048218,0.082214,0.058777,1.768293,0.365854,0.365854
1548436970304,-1.049438,0.080505,0.056641,1.829268,0.304878,0.182927
1548436970306,-1.049561,0.079102,0.059509,1.707317,0.182927,0.243902
1548436970306,-1.045776,0.078125,0.058899,1.524390,0.000000,0.121951
1548436970351,-1.043152,0.077942,0.059753,1.402439,-0.121951,0.000000
1548436970351,-1.041077,0.075867,0.062195,0.853659,-0.365854,-0.121951
1548436970352,-1.037231,0.075256,0.063965,0.243902,-0.792683,-0.243902
1548436970352,-1.034546,0.077026,0.062866,-0.243902,-1.280488,-0.365854
1548436970372,-1.031555,0.077881,0.062317,-0.182927,-1.707317,-0.365854
1548436970372,-1.031372,0.076416,0.062927,-0.121951,-2.073171,-0.426829
1548436970378,-1.028992,0.074280,0.061279,0.121951,-2.378049,-0.365854
1548436970385,-1.029602,0.069763,0.062317,0.487805,-2.378049,-0.426829
1548436970393,-1.032104,0.069275,0.057373,0.792683,-2.317073,-0.304878
1548436970410,-1.027405,0.069214,0.057678,1.158537,-1.829268,-0.304878
1548436970422,-1.024048,0.063354,0.059937,1.097561,-0.914634,0.000000
1548436970424,-1.019775,0.057495,0.066650,0.609756,-0.365854,0.426829
1548436970443,-1.019348,0.056458,0.072144,0.304878,0.365854,0.670732
1548436970445,-1.015747,0.052307,0.080200,0.121951,0.365854,0.548781
1548436970458,-1.020508,0.055054,0.088867,0.121951,0.121951,0.609756
1548436970468,-1.026794,0.065552,0.099609,0.121951,-0.914634,0.609756
1548436970476,-1.039001,0.072937,0.102661,-0.487805,-2.743902,0.975610
1548436970484,-1.053101,0.076172,0.092285,-0.731707,-5.000000,1.463415
1548436970498,-1.069763,0.075378,0.076172,0.670732,-6.951220,2.012195
1548436970505,-1.072083,0.077393,0.058655,3.658537,-7.560976,2.500000
1548436970515,-1.065308,0.077759,0.044189,6.097561,-6.585366,2.743902
1548436970528,-1.049500,0.076355,0.044617,6.341464,-5.304878,3.048780
1548436970538,-1.033325,0.074402,0.049316,5.060976,-3.963415,2.987805
1548436970543,-1.020813,0.069946,0.057007,3.109756,-2.987805,2.439024
1548436970558,-1.012695,0.070801,0.063171,0.670732,-2.560976,1.768293
1548436970565,-1.013062,0.078796,0.066467,-1.585366,-2.500000,1.219512
1548436970573,-1.018188,0.084961,0.069214,-3.292683,-2.804878,0.853659
1548436970588,-1.023315,0.090515,0.072449,-3.841464,-3.292683,0.792683
1548436970595,-1.029480,0.090149,0.069763,-2.621951,-3.780488,0.792683
1548436970604,-1.035217,0.085144,0.065247,-0.609756,-4.207317,0.853659
1548436970610,-1.036987,0.080017,0.062134,1.036585,-4.207317,0.975610
1548436970625,-1.038696,0.076599,0.058533,1.768293,-3.780488,0.975610
1548436970632,-1.042725,0.072754,0.058044,0.975610,-3.536585,0.731707
1548436970640,-1.043457,0.070374,0.058594,-0.731707,-3.292683,0.548781
1548436970655,-1.043396,0.072449,0.067383,-2.134146,-2.743902,0.365854
1548436970663,-1.040771,0.075073,0.072876,-2.560976,-2.012195,0.121951
1548436970673,-1.040527,0.077576,0.075317,-2.500000,-1.829268,0.060976
1548436970686,-1.039917,0.079956,0.076782,-2.256098,-1.951220,0.182927
1548436970700,-1.037048,0.079407,0.076416,-1.890244,-2.195122,0.365854
1548436970701,-1.033447,0.078308,0.075134,-0.914634,-2.195122,0.487805
1548436970715,-1.031494,0.077332,0.072388,-0.060976,-1.951220,0.609756
1548436970723,-1.029175,0.078247,0.069458,0.365854,-1.646341,0.609756
1548436970730,-1.030151,0.081848,0.071350,0.000000,-1.402439,0.548781
1548436970745,-1.024719,0.085266,0.072266,-0.487805,-1.097561,0.304878
1548436970755,-1.029236,0.084839,0.069580,-0.792683,-0.731707,0.121951
1548436970760,-1.036072,0.087341,0.072021,-0.975610,-0.609756,-0.060976
1548436970775,-1.044434,0.086792,0.079590,-0.853659,-0.487805,-0.182927
1548436970783,-1.052795,0.085388,0.080444,-0.914634,-0.975610,-0.182927
1548436970790,-1.053650,0.087097,0.071350,-0.670732,-1.585366,-0.243902
1548436970805,-1.052124,0.086975,0.070923,0.792683,-1.402439,-0.243902
1548436970813,-1.054260,0.080200,0.073547,1.829268,-0.975610,-0.060976
1548436970820,-1.050171,0.077576,0.073914,1.524390,-1.158537,0.000000
1548436970840,-1.040100,0.081848,0.074036,0.304878,-1.585366,0.121951
1548436970843,-1.034241,0.086853,0.070923,-0.182927,-1.524390,0.243902
1548436970850,-1.027161,0.086975,0.062500,0.000000,-1.402439,0.121951
1548436970865,-1.021973,0.087158,0.053650,0.609756,-1.036585,0.121951
1548436970873,-1.010986,0.079224,0.065552,1.890244,0.609756,0.121951
1548436970880,-0.998230,0.075745,0.080811,2.926829,2.987805,-0.182927
1548436970900,-0.992432,0.077637,0.088867,2.012195,3.475610,-0.243902
1548436970903,-0.994995,0.077332,0.093994,0.243902,2.195122,0.060976
1548436970911,-1.005249,0.079590,0.090088,-0.243902,0.487805,0.304878
1548436970925,-1.020020,0.079712,0.083069,0.853659,-0.792683,0.426829
1548436970933,-1.033691,0.073853,0.072632,2.195122,-1.707317,0.609756
1548436970940,-1.044678,0.065552,0.067322,2.865854,-2.621951,0.853659
1548436970997,-1.054688,0.063110,0.063110,2.682927,-3.048780,0.975610
1548436970997,-1.064636,0.066650,0.060974,1.829268,-3.109756,0.975610
1548436970997,-1.068481,0.068359,0.059326,0.975610,-2.804878,0.975610
1548436970998,-1.072754,0.068787,0.061401,0.060976,-2.378049,0.853659
1548436970998,-1.070801,0.072021,0.063110,-0.731707,-1.829268,0.670732
1548436971009,-1.066101,0.076965,0.066895,-1.158537,-1.097561,0.670732
1548436971018,-1.059143,0.078003,0.072937,-1.280488,-0.609756,0.548781
1548436971023,-1.053467,0.077637,0.075500,-1.097561,-0.121951,0.426829
1548436971030,-1.047546,0.078125,0.073059,-1.036585,0.243902,0.243902
1548436971046,-1.040466,0.077515,0.077637,-1.036585,0.304878,-0.060976
1548436971054,-1.036133,0.076843,0.078674,-1.402439,0.182927,-0.182927
1548436971060,-1.033691,0.076660,0.078491,-1.524390,0.000000,-0.304878
1548436971075,-1.027100,0.075989,0.080811,-1.646341,-0.121951,-0.365854
1548436971083,-1.024841,0.075073,0.081909,-1.341463,-0.182927,-0.304878
1548436971091,-1.024963,0.076538,0.076904,-0.975610,-0.182927,-0.243902
1548436971105,-1.023804,0.076599,0.073486,-0.670732,-0.304878,-0.182927
1548436971113,-1.025330,0.074707,0.064392,-0.304878,-0.426829,0.000000
1548436971121,-1.020630,0.072876,0.058838,0.121951,-0.121951,0.182927
1548436971135,-1.011414,0.070251,0.051880,1.036585,1.585366,0.365854
1548436971145,-1.002258,0.066101,0.039429,2.500000,3.841464,0.731707
1548436971150,-0.979065,0.066895,0.049683,4.512195,7.256098,0.975610
1548436971178,-0.938538,0.076172,0.105652,7.926829,12.804878,1.463415
1548436971179,-0.924194,0.062927,0.149963,8.170732,13.170732,2.134146
1548436971180,-0.971924,0.063843,0.140808,2.987805,6.402439,2.621951
1548436971211,-1.032532,0.071106,0.095459,0.975610,-1.219512,2.621951
1548436971211,-1.073425,0.073425,0.045959,3.841464,-4.207317,3.048780
1548436971211,-1.098206,0.071716,0.017883,6.951220,-3.902439,3.597561
1548436971225,-1.102295,0.066162,0.025452,6.402439,-2.621951,4.146341
1548436971238,-1.093872,0.062439,0.046570,1.951220,-1.219512,4.329268
1548436971240,-1.083618,0.069946,0.066711,-2.682927,-1.219512,4.024390
1548436971255,-1.078979,0.078735,0.068787,-5.853659,-2.012195,3.719512
1548436971263,-1.072021,0.082581,0.063232,-7.682927,-3.231707,3.475610
1548436971270,-1.061646,0.086914,0.064209,-8.170732,-3.719512,3.353659
1548436971290,-1.050659,0.088257,0.070435,-8.109756,-3.841464,3.353659
1548436971293,-1.041870,0.088623,0.072998,-8.231708,-3.841464,3.170732
1548436971301,-1.034485,0.087158,0.075623,-7.682927,-3.719512,3.170732
1548436971315,-1.026428,0.080627,0.074646,-6.463415,-3.475610,2.926829
1548436971323,-1.022461,0.075928,0.071533,-5.670732,-3.231707,2.560976
1548436971334,-1.020447,0.079712,0.065369,-6.036585,-2.865854,2.012195
1548436971346,-1.019958,0.082581,0.062866,-7.012195,-2.439024,1.341463
1548436971353,-1.019958,0.083374,0.064148,-7.621952,-2.012195,0.548781
1548436971361,-1.021729,0.079651,0.062500,-7.926829,-1.646341,0.000000
1548436971375,-1.023376,0.075745,0.061279,-8.048780,-1.463415,-0.548781
1548436971383,-1.028198,0.074402,0.062256,-8.048780,-1.524390,-1.036585
1548436971390,-1.032349,0.075867,0.065369,-8.109756,-1.463415,-1.463415
1548436971405,-1.031555,0.079407,0.064636,-8.048780,-1.463415,-1.829268
1548436971412,-1.033752,0.081360,0.067139,-7.987805,-1.463415,-2.012195
1548436971421,-1.033081,0.082764,0.068176,-7.621952,-1.402439,-2.256098
1548436971435,-1.033203,0.084229,0.065308,-7.134147,-1.463415,-2.378049
1548436971443,-1.035400,0.084290,0.061401,-6.341464,-1.219512,-2.560976
1548436971450,-1.054932,0.074097,0.075256,-5.609756,-0.731707,-2.621951
1548436971465,-1.116516,0.093323,0.106079,-6.036585,-0.792683,-2.926829
1548436971473,-1.070374,0.143066,0.103821,-9.878049,-3.109756,-3.841464
1548436971480,-1.048401,0.125916,0.073730,-8.963415,-0.975610,-1.219512
1548436971495,-1.048523,0.116028,0.084229,-0.853659,-1.524390,1.158537
1548436971503,-1.022949,0.091309,0.087463,4.207317,-2.439024,0.731707
1548436971512,-1.003662,0.086914,0.079285,4.695122,-1.341463,0.975610
1548436971525,-0.994812,0.095764,0.086426,3.231707,-0.975610,2.073171
1548436971536,-0.996887,0.098389,0.087463,-0.914634,-1.524390,2.987805
1548436971540,-1.006714,0.112549,0.079224,-3.597561,-1.585366,3.353659
1548436971555,-1.012451,0.114380,0.076538,-3.353659,-1.036585,3.658537
1548436971563,-1.020874,0.111389,0.075378,-3.353659,-0.853659,3.963415
1548436971571,-1.026550,0.106201,0.075867,-3.475610,-0.975610,4.207317
1548436971585,-1.031067,0.101318,0.071106,-2.987805,-0.975610,4.451220
1548436971594,-1.037903,0.100098,0.067322,-2.317073,-0.975610,4.634146
1548436971600,-1.043030,0.100891,0.063904,-1.585366,-1.036585,4.512195
1548436971615,-1.045166,0.098450,0.060669,-1.463415,-1.097561,4.146341
1548436971622,-1.043274,0.097473,0.063354,-1.768293,-0.914634,3.841464
1548436971630,-1.039978,0.099182,0.066284,-2.134146,-0.792683,3.414634
1548436971645,-1.038147,0.099548,0.070740,-2.256098,-0.548781,2.926829
1548436971652,-1.036133,0.100159,0.077271,-2.256098,-0.426829,2.378049
1548436971661,-1.031433,0.102112,0.077148,-2.073171,-0.304878,1.829268
1548436971675,-1.026794,0.105103,0.085938,-1.768293,-0.365854,1.280488
1548436971683,-1.026001,0.104248,0.087036,-1.158537,-0.487805,0.792683
1548436971690,-1.021362,0.102966,0.089294,-0.548781,-0.487805,0.304878
1548436971705,-1.020203,0.102661,0.090027,0.121951,-0.670732,0.060976
1548436971713,-1.019592,0.101990,0.089478,0.731707,-0.975610,-0.182927
1548436971720,-1.022339,0.102356,0.085205,1.097561,-1.158537,-0.548781
1548436971737,-1.028259,0.101379,0.081177,1.402439,-1.280488,-0.731707
1548436971742,-1.035095,0.101135,0.081055,1.402439,-1.402439,-0.731707
1548436971750,-1.037842,0.098999,0.077637,1.402439,-1.402439,-0.731707
1548436971765,-1.040833,0.094116,0.072693,1.341463,-1.341463,-0.670732
1548436971773,-1.044312,0.092712,0.071533,1.402439,-1.341463,-0.609756
1548436971780,-1.042969,0.090637,0.069702,1.463415,-1.097561,-0.487805
1548436971795,-1.038879,0.092102,0.064880,1.524390,-0.670732,-0.365854
1548436971802,-1.033569,0.093567,0.057678,1.158537,-0.487805,-0.426829
1548436971811,-1.027466,0.092651,0.059448,1.158537,0.304878,-0.487805
1548436971825,-1.017273,0.089539,0.071960,2.439024,2.743902,-0.609756
1548436971841,-1.000610,0.091125,0.079773,3.902439,5.121951,-0.853659
1548436971841,-0.990479,0.088806,0.086609,3.902439,5.914634,-0.731707
1548436971855,-0.996033,0.085083,0.090637,2.073171,4.756098,-0.243902
1548436971862,-1.005188,0.086731,0.086426,1.951220,2.865854,-0.060976
1548436971870,-1.005249,0.088745,0.087036,4.634146,2.865854,-0.243902
1548436971885,-1.013672,0.082397,0.085876,5.914634,2.743902,-0.182927
1548436971896,-1.034119,0.082092,0.079346,4.085366,0.670732,-0.121951
1548436971901,-1.053223,0.081909,0.069397,2.560976,-1.585366,0.060976
1548436971923,-1.061707,0.081604,0.063721,2.073171,-2.439024,-0.304878
1548436971923,-1.068726,0.085022,0.065918,2.560976,-1.768293,-0.731707
1548436971931,-1.068909,0.081421,0.072937,2.317073,-1.341463,-0.914634
1548436971945,-1.069153,0.079712,0.079346,0.609756,-1.768293,-1.158537
1548436971953,-1.065308,0.078796,0.080139,-0.914634,-2.743902,-1.341463
1548436971962,-1.061707,0.079590,0.079102,-1.097561,-3.536585,-1.402439
1548436971975,-1.055969,0.080505,0.072876,-0.182927,-3.780488,-1.524390
1548436971983,-1.048279,0.079041,0.070007,0.914634,-3.597561,-1.646341
1548436971990,-1.038879,0.076904,0.067871,1.707317,-3.109756,-1.524390
1548436972005,-1.030273,0.075195,0.070496,1.890244,-2.743902,-1.402439
1548436972014,-1.025208,0.074402,0.067932,1.158537,-2.317073,-1.341463
1548436972020,-1.023010,0.075745,0.066101,0.182927,-2.012195,-1.341463
1548436972035,-1.021179,0.076477,0.065796,-0.670732,-1.585366,-1.341463
1548436972042,-1.018616,0.077209,0.065186,-1.402439,-1.341463,-1.402439
1548436972050,-1.021118,0.078125,0.064575,-2.195122,-1.280488,-1.280488
1548436972065,-1.023010,0.080994,0.067078,-2.743902,-1.280488,-1.158537
1548436972073,-1.027832,0.082092,0.067017,-2.926829,-1.280488,-1.097561
1548436972080,-1.028809,0.083496,0.069275,-3.109756,-1.219512,-1.158537
1548436972095,-1.029175,0.085266,0.072510,-3.353659,-1.158537,-1.097561
1548436972103,-1.030396,0.085999,0.072449,-3.658537,-1.341463,-1.219512
1548436972113,-1.037170,0.084290,0.070557,-3.658537,-1.646341,-1.341463
1548436972127,-1.037170,0.084961,0.067871,-3.414634,-1.707317,-1.463415
1548436972133,-1.044861,0.084351,0.070679,-2.926829,-1.524390,-1.524390
1548436972140,-1.086182,0.071167,0.084534,-2.804878,-1.524390,-1.707317
1548436972167,-1.088013,0.115906,0.097778,-4.573171,-2.987805,-2.378049
1548436972167,-1.067932,0.111755,0.080444,-5.731708,-2.317073,-1.768293
1548436972170,-1.058350,0.094666,0.080872,-2.256098,-1.707317,0.182927
1548436972185,-1.033325,0.072571,0.081604,1.524390,-2.256098,0.304878
1548436972193,-1.019470,0.078796,0.080933,2.500000,-1.768293,0.365854
1548436972200,-1.013794,0.086609,0.083313,2.134146,-1.463415,0.670732
1548436972216,-1.015137,0.090515,0.078552,0.365854,-1.036585,1.036585
1548436972223,-1.015625,0.094849,0.074524,-0.731707,-0.792683,1.402439
1548436972230,-1.014954,0.091614,0.077026,-1.097561,-0.243902,1.524390
1548436972246,-1.016602,0.090271,0.080872,-1.524390,-0.121951,1.524390
1548436972252,-1.015747,0.090698,0.079773,-1.768293,-0.487805,1.402439
1548436972261,-1.018555,0.090637,0.076965,-1.219512,-0.975610,1.341463
1548436972276,-1.022095,0.089355,0.077148,0.121951,-1.402439,1.402439
1548436972284,-1.024658,0.087158,0.076172,1.280488,-1.707317,1.219512
1548436972290,-1.029480,0.084595,0.076599,1.463415,-1.890244,0.914634
1548436972305,-1.033203,0.082764,0.079529,1.036585,-1.890244,0.609756
1548436972313,-1.039124,0.082214,0.079224,0.426829,-1.768293,0.365854
1548436972320,-1.043396,0.083740,0.080139,0.060976,-1.646341,0.121951
1548436972335,-1.043091,0.085571,0.081970,0.060976,-1.524390,-0.121951
1548436972343,-1.043762,0.085693,0.081055,0.365854,-1.280488,-0.243902
1548436972350,-1.042114,0.088135,0.081055,0.792683,-1.097561,-0.365854
1548436972365,-1.038757,0.086548,0.078369,0.914634,-0.914634,-0.426829
1548436972373,-1.032715,0.086060,0.080933,0.914634,-0.731707,-0.365854
1548436972380,-1.028625,0.089111,0.081909,0.670732,-0.731707,-0.365854
1548436972395,-1.025696,0.090393,0.081848,0.365854,-0.670732,-0.243902
1548436972402,-1.023010,0.092468,0.081238,0.304878,-0.548781,-0.304878
1548436972413,-1.023438,0.093262,0.082458,0.304878,-0.792683,-0.243902
1548436972425,-1.025574,0.090088,0.082947,0.548781,-1.097561,-0.365854
1548436972433,-1.026611,0.088379,0.080933,1.036585,-1.280488,-0.426829
1548436972440,-1.030701,0.085205,0.080383,1.402439,-1.402439,-0.426829
1548436972455,-1.032227,0.081543,0.078369,1.585366,-1.463415,-0.426829
1548436972462,-1.035400,0.081848,0.077393,1.646341,-1.524390,-0.609756
1548436972470,-1.036377,0.079773,0.078003,1.585366,-1.341463,-0.548781
1548436972485,-1.039917,0.081970,0.079651,1.463415,-1.341463,-0.487805
1548436972493,-1.042908,0.082092,0.077271,1.463415,-1.341463,-0.487805
1548436972500,-1.043335,0.082397,0.074463,1.829268,-1.158537,-0.487805
1548436972515,-1.044189,0.080994,0.074951,2.256098,-1.097561,-0.670732
1548436972522,-1.042297,0.082092,0.076233,2.317073,-0.914634,-0.975610
1548436972530,-1.040955,0.082703,0.080017,2.195122,-0.609756,-0.975610
1548436972545,-1.039978,0.085144,0.080139,1.890244,-0.365854,-0.975610
1548436972552,-1.037354,0.086853,0.080322,1.463415,-0.121951,-1.158537
1548436972560,-1.036865,0.085999,0.080444,1.158537,0.304878,-1.280488
1548436972575,-1.040649,0.085632,0.078430,1.036585,0.426829,-1.402439
1548436972583,-1.041077,0.085144,0.078003,1.036585,0.426829,-1.402439
1548436972590,-1.041199,0.089050,0.075256,1.158537,0.426829,-1.463415
1548436972605,-1.043091,0.085754,0.068604,1.280488,0.792683,-1.280488
1548436972613,-1.043945,0.080688,0.066101,1.402439,1.402439,-1.097561
1548436972620,-1.045837,0.077332,0.064636,1.463415,1.707317,-1.036585
1548436972635,-1.046509,0.078918,0.071167,1.402439,2.012195,-1.280488
1548436972643,-1.045776,0.080444,0.074280,0.731707,2.317073,-1.402439
1548436972650,-1.042358,0.080750,0.071960,0.182927,2.195122,-1.463415
1548436972665,-1.038452,0.077637,0.073914,0.731707,1.890244,-1.524390
1548436972673,-1.033508,0.076782,0.074402,1.707317,1.707317,-1.646341
1548436972680,-1.030029,0.072083,0.078674,2.317073,1.707317,-1.768293
1548436972695,-1.028381,0.071411,0.079102,2.317073,1.585366,-1.707317
1548436972703,-1.025635,0.070679,0.074768,2.134146,1.402439,-1.646341
1548436972710,-1.026489,0.071228,0.075867,2.012195,1.280488,-1.707317
1548436972725,-1.027161,0.070312,0.076599,1.829268,1.280488,-1.585366
1548436972733,-1.026855,0.072388,0.075745,1.829268,1.036585,-1.463415
1548436972740,-1.027710,0.070496,0.075928,1.829268,0.670732,-1.341463
1548436972755,-1.031555,0.070679,0.077148,1.829268,0.548781,-1.280488
1548436972762,-1.032776,0.071411,0.074768,1.524390,0.304878,-1.158537
1548436972770,-1.034485,0.069031,0.076843,1.463415,0.304878,-1.158537
1548436972785,-1.034241,0.070312,0.078125,1.463415,0.182927,-1.036585
1548436972792,-1.032288,0.069702,0.074463,1.219512,0.060976,-0.914634
1548436972800,-1.031189,0.067444,0.075317,0.914634,-0.121951,-0.853659
1548436972815,-1.028381,0.069885,0.073486,0.731707,-0.121951,-0.670732
1548436972823,-1.028870,0.072144,0.075256,0.609756,-0.060976,-0.487805
1548436972830,-1.026367,0.071960,0.076294,0.426829,-0.243902,-0.304878
1548436972845,-1.021667,0.072876,0.077271,0.426829,-0.365854,-0.121951
1548436972853,-1.019470,0.074890,0.076111,0.365854,-0.670732,0.000000
1548436972860,-1.020264,0.072876,0.075562,0.426829,-1.097561,0.060976
1548436972875,-1.020264,0.072510,0.077087,0.426829,-1.402439,0.060976
1548436972882,-1.024292,0.071533,0.074402,0.487805,-1.646341,0.182927
1548436972898,-1.027710,0.073608,0.073853,0.548781,-1.768293,0.243902
1548436972905,-1.032715,0.075073,0.072266,0.548781,-1.829268,0.365854
1548436972912,-1.034424,0.076416,0.070862,0.670732,-1.890244,0.426829
1548436972920,-1.036438,0.078247,0.068787,0.792683,-2.012195,0.487805
1548436972935,-1.040894,0.078430,0.068970,0.914634,-2.134146,0.426829
1548436972943,-1.041809,0.076538,0.069458,0.975610,-2.134146,0.426829
1548436972950,-1.039368,0.076660,0.071655,0.975610,-2.073171,0.304878
1548436972965,-1.038086,0.076599,0.070984,1.036585,-2.073171,0.182927
1548436972973,-1.033875,0.076538,0.074951,0.914634,-2.073171,0.243902
1548436972980,-1.033325,0.077820,0.074707,0.853659,-2.012195,0.182927
1548436972995,-1.032288,0.076843,0.076233,0.609756,-2.073171,0.182927
1548436973003,-1.034546,0.075928,0.076599,0.548781,-2.134146,0.182927
1548436973010,-1.045898,0.076294,0.071472,0.731707,-1.951220,0.365854
1548436973025,-1.060242,0.070679,0.065857,1.097561,-1.707317,0.365854
1548436973032,-1.072632,0.070984,0.057861,0.975610,-1.219512,0.365854
1548436973040,-1.077820,0.071472,0.054260,0.792683,-0.426829,0.304878
1548436973055,-1.075745,0.070251,0.060730,0.304878,0.487805,0.182927
1548436973062,-1.065247,0.074280,0.065002,0.060976,1.280488,0.000000
1548436973070,-1.050110,0.072266,0.066650,-0.182927,1.707317,-0.243902
1548436973085,-1.037537,0.075867,0.066833,-0.609756,2.012195,-0.243902
1548436973093,-1.025269,0.077209,0.072327,-1.036585,2.195122,-0.426829
1548436973100,-1.018066,0.079285,0.081299,-1.158537,2.134146,-0.487805
1548436973115,-1.010010,0.079346,0.084167,-0.792683,1.890244,-0.548781
1548436973123,-1.005737,0.077454,0.081055,-0.426829,1.402439,-0.487805
1548436973130,-1.012451,0.075073,0.079590,0.182927,0.853659,-0.365854
1548436973145,-1.022461,0.072205,0.076294,0.731707,0.426829,-0.304878
1548436973154,-1.030457,0.070496,0.075317,0.975610,0.304878,-0.243902
1548436973160,-1.041626,0.070374,0.071167,0.975610,0.060976,-0.243902
1548436973175,-1.047974,0.071411,0.065430,0.548781,-0.121951,-0.060976
1548436973183,-1.050476,0.068848,0.065613,-0.060976,0.182927,0.121951
1548436973198,-1.052979,0.069092,0.066650,-0.304878,0.609756,0.121951
1548436973205,-1.050598,0.072327,0.066956,-0.121951,0.853659,0.182927
1548436973212,-1.049255,0.074646,0.066345,0.060976,0.914634,0.182927
1548436973220,-1.044861,0.072815,0.064087,0.243902,1.036585,0.121951
1548436973235,-1.038940,0.074951,0.061584,0.121951,1.097561,-0.182927
1548436973243,-1.031738,0.075500,0.068420,-0.304878,1.341463,-0.243902
1548436973250,-1.026062,0.076904,0.071411,-0.487805,1.524390,-0.426829
1548436973265,-1.025757,0.077209,0.072876,-0.365854,1.524390,-0.548781
1548436973273,-1.027344,0.076355,0.070007,-0.182927,1.341463,-0.609756
1548436973281,-1.029724,0.076843,0.067810,0.000000,1.036585,-0.670732
1548436973295,-1.033691,0.074097,0.066528,0.365854,0.975610,-0.670732
1548436973303,-1.037415,0.074158,0.064514,0.670732,0.914634,-0.670732
1548436973310,-1.036621,0.073242,0.065674,0.609756,0.975610,-0.548781
1548436973332,-1.037292,0.075867,0.061462,0.670732,0.914634,-0.304878
1548436973333,-1.034851,0.074219,0.060669,0.548781,0.975610,-0.304878
1548436973340,-1.032166,0.072632,0.063232,0.182927,0.914634,-0.304878
1548436973355,-1.032043,0.074524,0.063843,0.060976,0.792683,-0.304878
1548436973362,-1.029846,0.074341,0.063293,-0.182927,0.609756,-0.426829
1548436973370,-1.030334,0.074646,0.066650,0.121951,0.548781,-0.426829
1548436973385,-1.027527,0.070618,0.066345,0.487805,0.365854,-0.426829
1548436973393,-1.025574,0.070068,0.067322,0.609756,0.243902,-0.487805
1548436973400,-1.030273,0.071594,0.065796,0.609756,0.121951,-0.426829
1548436973415,-1.030334,0.070740,0.066711,0.365854,0.121951,-0.365854
1548436973423,-1.033325,0.070984,0.066467,0.243902,0.182927,-0.426829
1548436973430,-1.035583,0.070740,0.067810,0.487805,0.182927,-0.304878
1548436973445,-1.036072,0.069885,0.067078,0.548781,0.000000,-0.304878
1548436973453,-1.037170,0.070740,0.064087,0.426829,-0.060976,-0.243902
1548436973460,-1.035156,0.071960,0.064331,0.365854,0.000000,-0.243902
1548436973475,-1.035889,0.069885,0.065796,0.243902,0.000000,-0.243902
1548436973482,-1.035950,0.069214,0.063660,0.304878,0.060976,-0.182927
1548436973490,-1.033020,0.069031,0.066101,0.426829,0.060976,-0.121951
1548436973505,-1.029541,0.069153,0.066406,0.426829,0.060976,-0.121951
1548436973512,-1.028870,0.070984,0.065002,0.487805,0.060976,-0.121951
1548436973520,-1.028137,0.069641,0.064636,0.487805,-0.243902,-0.060976
1548436973535,-1.030823,0.069946,0.062683,0.426829,-0.426829,-0.060976
1548436973542,-1.033020,0.069885,0.060242,0.304878,-0.609756,-0.060976
1548436973550,-1.035706,0.069519,0.062073,0.365854,-0.548781,0.060976
1548436973565,-1.034546,0.071289,0.062012,0.487805,-0.487805,0.000000
1548436973573,-1.036621,0.071106,0.062134,0.487805,-0.548781,0.121951
1548436973580,-1.040649,0.071594,0.060730,0.426829,-0.670732,0.182927
1548436973595,-1.042175,0.069580,0.060059,0.426829,-0.609756,0.121951
1548436973602,-1.042053,0.071899,0.059204,0.243902,-0.548781,0.182927
1548436973610,-1.042969,0.071655,0.060303,0.243902,-0.365854,0.182927
1548436973625,-1.042725,0.072510,0.059387,0.304878,-0.182927,0.121951
1548436973632,-1.040222,0.072388,0.061462,0.243902,0.000000,0.121951
1548436973640,-1.037476,0.072449,0.062744,0.243902,-0.121951,0.060976
1548436973655,-1.034607,0.072083,0.062561,0.243902,-0.182927,0.060976
1548436973663,-1.036865,0.072571,0.064331,0.121951,-0.182927,-0.060976
1548436973671,-1.033203,0.073120,0.062561,0.243902,-0.060976,0.000000
1548436973685,-1.032410,0.072021,0.063171,0.365854,-0.121951,0.060976
1548436973693,-1.033630,0.071350,0.063171,0.670732,-0.243902,0.000000
1548436973700,-1.031250,0.070557,0.061707,0.792683,-0.304878,0.060976
1548436973715,-1.031860,0.071228,0.062012,0.609756,-0.426829,0.060976
1548436973722,-1.033936,0.071838,0.061951,0.548781,-0.426829,0.060976
1548436973731,-1.034241,0.071411,0.059998,0.243902,-0.426829,0.121951
1548436973745,-1.036011,0.070435,0.060852,0.000000,-0.487805,0.243902
1548436973752,-1.036682,0.070618,0.059937,0.121951,-0.487805,0.365854
1548436973760,-1.038391,0.070557,0.060303,0.243902,-0.548781,0.121951
1548436973775,-1.038513,0.067566,0.057495,0.609756,-0.731707,0.000000
1548436973783,-1.038879,0.067444,0.056335,0.975610,-0.609756,0.060976
1548436973790,-1.038513,0.069275,0.058533,1.646341,0.060976,0.121951
1548436973805,-1.035645,0.070801,0.060974,2.073171,0.792683,0.182927
1548436973813,-1.036621,0.069946,0.063782,1.524390,0.731707,0.304878
1548436973820,-1.036377,0.070312,0.063110,0.548781,0.060976,0.304878
1548436973835,-1.035217,0.070557,0.063110,-0.182927,-0.426829,0.304878
1548436973843,-1.035278,0.073975,0.061157,-0.426829,-0.548781,0.365854
1548436973850,-1.036560,0.070679,0.059631,-0.548781,-0.426829,0.487805
1548436973865,-1.035461,0.067444,0.062500,-0.548781,-0.365854,0.426829
1548436973873,-1.034302,0.069580,0.061035,-0.609756,-0.548781,0.365854
1548436973880,-1.034119,0.069336,0.059753,-0.609756,-0.609756,0.304878
1548436973895,-1.036316,0.068481,0.060608,-0.670732,-0.609756,0.182927
1548436973903,-1.036560,0.068359,0.061157,-0.609756,-0.365854,0.121951
1548436973910,-1.036865,0.068726,0.060730,-0.060976,-0.304878,0.000000
1548436973925,-1.039551,0.067810,0.058655,0.182927,-0.304878,-0.060976
1548436973933,-1.037598,0.069458,0.058228,0.243902,-0.304878,-0.182927
1548436973940,-1.037231,0.067993,0.058533,0.548781,-0.121951,-0.182927
1548436973955,-1.035400,0.066528,0.060303,0.548781,0.121951,-0.182927
1548436973963,-1.034546,0.065796,0.058472,0.304878,0.121951,-0.060976
1548436973970,-1.031006,0.066956,0.059509,0.060976,0.000000,0.000000
1548436973985,-1.032532,0.066956,0.061890,-0.182927,-0.060976,-0.121951
1548436973993,-1.032104,0.070251,0.062012,-0.243902,-0.182927,-0.243902
1548436974000,-1.032288,0.069275,0.060730,-0.182927,-0.243902,-0.121951
1548436974015,-1.032349,0.069824,0.060669,0.000000,-0.365854,-0.304878
1548436974023,-1.033813,0.070190,0.060181,0.304878,-0.487805,-0.487805
1548436974030,-1.034668,0.070557,0.058105,0.548781,-0.609756,-0.487805
1548436974045,-1.036926,0.072510,0.059998,0.548781,-0.609756,-0.609756
1548436974053,-1.036560,0.072510,0.060852,0.609756,-0.731707,-0.731707
1548436974060,-1.036438,0.073181,0.057068,0.914634,-0.914634,-0.792683
1548436974075,-1.036133,0.073853,0.057739,1.036585,-0.914634,-0.792683
1548436974082,-1.034912,0.074951,0.057800,1.036585,-1.036585,-0.670732
1548436974090,-1.030884,0.075928,0.056702,1.158537,-1.036585,-0.548781
1548436974105,-1.030334,0.075256,0.059265,1.097561,-1.036585,-0.304878
1548436974112,-1.029480,0.078430,0.058777,0.853659,-1.097561,0.121951
1548436974120,-1.029663,0.081360,0.059448,0.731707,-1.036585,0.365854
1548436974135,-1.026550,0.082642,0.057617,0.609756,-1.036585,0.548781
1548436974142,-1.028198,0.082397,0.057495,0.609756,-1.158537,0.792683
1548436974150,-1.031555,0.078430,0.058533,1.036585,-1.341463,0.914634
1548436974172,-1.039551,0.072815,0.057007,1.402439,-1.402439,0.853659
1548436974173,-1.047974,0.069763,0.054749,1.402439,-1.646341,0.670732
1548436974180,-1.052856,0.068726,0.052673,1.402439,-1.707317,0.548781
1548436974195,-1.054565,0.066223,0.051636,1.280488,-1.646341,0.365854
1548436974203,-1.053284,0.065613,0.052856,1.036585,-1.402439,0.121951
1548436974210,-1.049316,0.064453,0.055603,0.853659,-1.036585,-0.182927
1548436974232,-1.043579,0.061279,0.058350,0.792683,-0.670732,-0.365854
1548436974233,-1.039612,0.062622,0.062256,0.853659,-0.548781,-0.548781
1548436974240,-1.033936,0.061584,0.064026,0.792683,-0.426829,-0.609756
1548436974255,-1.030273,0.060913,0.064758,0.731707,-0.426829,-0.548781
1548436974270,-1.029114,0.062073,0.063843,0.670732,-0.548781,-0.426829
1548436974271,-1.025024,0.062622,0.064941,0.731707,-0.731707,-0.304878
1548436974285,-1.025635,0.061646,0.064453,0.670732,-0.853659,-0.182927
1548436974292,-1.028381,0.061218,0.062622,0.487805,-0.914634,-0.060976
1548436974300,-1.033447,0.063293,0.063232,0.304878,-1.036585,0.060976
1548436974315,-1.035889,0.065918,0.058777,0.060976,-1.097561,0.182927
1548436974322,-1.039673,0.067322,0.058960,0.060976,-0.975610,0.243902
1548436974330,-1.040344,0.067017,0.060364,-0.121951,-0.853659,0.304878
1548436974345,-1.040955,0.067871,0.060181,-0.182927,-0.853659,0.243902
1548436974352,-1.039429,0.071167,0.058899,-0.060976,-0.914634,0.243902
1548436974360,-1.036194,0.072876,0.059753,0.121951,-0.731707,0.243902
1548436974375,-1.035461,0.072144,0.060303,0.243902,-0.853659,0.182927
1548436974382,-1.033325,0.072876,0.059143,0.304878,-0.853659,0.243902
1548436974390,-1.032166,0.072815,0.059509,0.426829,-0.792683,0.182927
1548436974405,-1.033508,0.071228,0.059265,0.548781,-0.853659,0.182927
1548436974412,-1.035400,0.070435,0.057983,0.670732,-0.914634,0.121951
1548436974420,-1.038391,0.072449,0.059631,0.609756,-0.914634,0.121951
1548436974435,-1.041260,0.072449,0.058167,0.487805,-0.853659,0.243902
1548436974442,-1.041809,0.070496,0.056763,0.487805,-0.853659,0.182927
1548436974450,-1.040894,0.069946,0.057983,0.365854,-0.792683,0.182927
1548436974465,-1.038513,0.068848,0.060913,0.304878,-0.792683,0.060976
1548436974473,-1.038757,0.067078,0.061096,0.243902,-0.670732,0.060976
1548436974480,-1.037415,0.065918,0.061279,0.060976,-0.670732,0.060976
1548436974495,-1.035706,0.067932,0.059875,0.121951,-0.609756,-0.060976
1548436974503,-1.034241,0.066772,0.064758,0.182927,-0.548781,0.000000
1548436974510,-1.033325,0.065308,0.061462,0.243902,-0.548781,-0.060976
1548436974525,-1.032288,0.065918,0.062073,0.121951,-0.548781,0.000000
1548436974533,-1.034363,0.066345,0.062439,0.365854,-0.670732,0.060976
1548436974540,-1.035767,0.064880,0.059509,0.487805,-0.670732,0.060976
1548436974555,-1.036926,0.066589,0.059204,0.487805,-0.609756,0.121951
1548436974563,-1.036987,0.068726,0.059753,0.426829,-0.487805,0.304878
1548436974578,-1.035583,0.067871,0.060425,0.243902,-0.548781,0.243902
1548436974585,-1.036987,0.068481,0.058105,0.243902,-0.548781,0.243902
1548436974593,-1.038818,0.067139,0.056946,0.487805,-0.670732,0.243902
1548436974600,-1.038635,0.067017,0.057129,0.426829,-0.670732,0.182927
1548436974615,-1.039246,0.068115,0.057312,0.365854,-0.609756,0.182927
1548436974623,-1.039062,0.067871,0.059998,0.426829,-0.487805,0.121951
1548436974630,-1.037537,0.069336,0.061035,0.365854,-0.548781,0.182927
1548436974645,-1.034363,0.068054,0.058350,0.182927,-0.548781,0.121951
1548436974652,-1.032471,0.067810,0.058105,0.182927,-0.426829,0.182927
1548436974660,-1.034729,0.069763,0.060791,0.243902,-0.609756,0.121951
1548436974675,-1.032776,0.069336,0.063049,0.182927,-0.670732,0.060976
1548436974682,-1.033569,0.067444,0.060791,0.243902,-0.548781,0.060976
1548436974690,-1.033691,0.069397,0.058838,0.365854,-0.670732,0.121951
1548436974705,-1.034607,0.068481,0.059692,0.365854,-0.731707,0.121951
1548436974712,-1.034302,0.067444,0.059692,0.365854,-0.792683,0.121951
1548436974728,-1.035645,0.067688,0.059753,0.304878,-0.792683,0.121951
1548436974735,-1.037048,0.069031,0.057617,0.304878,-0.792683,0.121951
1548436974743,-1.038513,0.069458,0.057678,0.365854,-0.792683,0.060976
1548436974750,-1.039368,0.069458,0.058228,0.548781,-0.792683,0.121951
1548436974766,-1.038147,0.068726,0.060242,0.487805,-0.792683,0.121951
1548436974773,-1.037292,0.067505,0.058472,0.426829,-0.731707,0.060976
1548436974780,-1.036133,0.064148,0.056824,0.426829,-0.670732,0.121951
1548436974795,-1.038208,0.066956,0.059631,0.426829,-0.670732,0.243902
1548436974803,-1.037537,0.069153,0.059570,0.365854,-0.548781,0.243902
1548436974810,-1.034607,0.067139,0.060547,0.243902,-0.487805,0.182927
1548436974827,-1.035339,0.067200,0.060242,0.182927,-0.487805,0.182927
1548436974832,-1.035828,0.067017,0.059937,0.182927,-0.548781,0.182927
1548436974840,-1.033752,0.068665,0.058350,0.304878,-0.548781,0.121951
1548436974855,-1.032837,0.068909,0.058533,0.365854,-0.609756,0.060976
1548436974862,-1.035828,0.067688,0.059448,0.304878,-0.731707,0.121951
1548436974870,-1.036926,0.068542,0.060303,0.243902,-0.609756,0.060976
1548436974885,-1.037659,0.070251,0.059998,0.365854,-0.609756,0.000000
1548436974893,-1.037659,0.068787,0.058167,0.426829,-0.731707,-0.060976
1548436974900,-1.038330,0.068726,0.057129,0.487805,-0.670732,0.000000
1548436974915,-1.038818,0.069275,0.060181,0.487805,-0.609756,0.060976
1548436974922,-1.037537,0.068909,0.059387,0.670732,-0.670732,0.182927
1548436974930,-1.037415,0.069946,0.058411,0.609756,-0.670732,0.182927
1548436974945,-1.036072,0.069885,0.057800,0.487805,-0.670732,0.121951
1548436974953,-1.035950,0.066956,0.057922,0.426829,-0.609756,0.121951
1548436974961,-1.036621,0.065735,0.057800,0.548781,-0.609756,0.121951
1548436974975,-1.036194,0.067261,0.059448,0.426829,-0.548781,0.121951
1548436974983,-1.036133,0.067200,0.059875,0.304878,-0.548781,0.121951
1548436974990,-1.037170,0.066345,0.056885,0.243902,-0.731707,0.121951
1548436975005,-1.037720,0.067383,0.060120,0.304878,-0.670732,0.060976
1548436975013,-1.038818,0.067322,0.059570,0.365854,-0.670732,0.000000
1548436975020,-1.039551,0.065186,0.057434,0.426829,-0.670732,0.060976
1548436975035,-1.039062,0.064880,0.059692,0.365854,-0.609756,0.060976
1548436975043,-1.039368,0.068848,0.058167,0.426829,-0.548781,0.121951
1548436975050,-1.039673,0.069092,0.055054,0.365854,-0.487805,0.121951
1548436975065,-1.038391,0.068848,0.056946,0.426829,-0.548781,0.121951
1548436975072,-1.035828,0.068726,0.059448,0.426829,-0.426829,0.121951
1548436975080,-1.034790,0.066406,0.057373,0.365854,-0.487805,0.121951
1548436975095,-1.035156,0.067993,0.057983,0.426829,-0.487805,0.121951
1548436975103,-1.036743,0.068054,0.055969,0.426829,-0.487805,0.182927
1548436975110,-1.036560,0.068176,0.058289,0.487805,-0.426829,0.121951
1548436975125,-1.037354,0.067017,0.057556,0.487805,-0.426829,0.121951
1548436975133,-1.036377,0.067810,0.055725,0.304878,-0.426829,0.000000
1548436975140,-1.036926,0.067261,0.055969,0.304878,-0.487805,0.060976
1548436975155,-1.036438,0.066406,0.058105,0.182927,-0.487805,0.121951
1548436975163,-1.032837,0.065552,0.058289,0.121951,-0.548781,0.121951
1548436975170,-1.033752,0.065491,0.058655,0.182927,-0.487805,0.121951
1548436975185,-1.036072,0.066711,0.060913,0.182927,-0.487805,0.182927
1548436975193,-1.034180,0.067627,0.059570,0.182927,-0.609756,0.121951
1548436975200,-1.032410,0.066772,0.059265,0.426829,-0.609756,0.121951
1548436975215,-1.033752,0.067017,0.059753,0.548781,-0.548781,0.304878
1548436975223,-1.035583,0.066956,0.060059,0.243902,-0.609756,0.182927
1548436975230,-1.036194,0.067566,0.058350,0.304878,-0.670732,0.182927
1548436975245,-1.037170,0.066956,0.057312,0.548781,-0.609756,0.182927
1548436975253,-1.036621,0.067200,0.057434,0.365854,-0.548781,0.243902
1548436975260,-1.034851,0.069092,0.057434,0.243902,-0.548781,0.304878
1548436975275,-1.037415,0.068420,0.056335,0.426829,-0.609756,0.304878
1548436975283,-1.036072,0.068115,0.056763,0.487805,-0.670732,0.243902
1548436975290,-1.036255,0.068604,0.059448,0.426829,-0.609756,0.182927
1548436975305,-1.035400,0.070129,0.059082,0.304878,-0.609756,0.182927
1548436975313,-1.035156,0.068298,0.061340,0.304878,-0.670732,0.182927
1548436975320,-1.034424,0.067688,0.058838,0.304878,-0.731707,0.060976
1548436975335,-1.035339,0.067871,0.059082,0.548781,-0.731707,0.121951
1548436975343,-1.035767,0.065430,0.056824,0.487805,-0.731707,0.182927
1548436975351,-1.035889,0.065918,0.060364,0.365854,-0.670732,0.182927
1548436975366,-1.035828,0.066589,0.057617,0.365854,-0.670732,0.243902
1548436975377,-1.037048,0.065369,0.057251,0.487805,-0.792683,0.243902
1548436975382,-1.036438,0.066406,0.057922,0.426829,-0.914634,0.304878
1548436975396,-1.037903,0.066589,0.058105,0.182927,-0.853659,0.304878
1548436975404,-1.039001,0.066467,0.057129,0.426829,-0.914634,0.243902
1548436975411,-1.038452,0.065430,0.058350,0.609756,-0.853659,0.243902
1548436975426,-1.037659,0.065613,0.057983,0.426829,-0.792683,0.304878
1548436975433,-1.039185,0.068665,0.057068,0.365854,-0.670732,0.365854
1548436975440,-1.038452,0.066895,0.056885,0.304878,-0.548781,0.243902
1548436975455,-1.034851,0.068787,0.057922,0.365854,-0.487805,0.243902
1548436975463,-1.035278,0.068970,0.057251,0.243902,-0.548781,0.243902
1548436975470,-1.036011,0.069519,0.058472,0.365854,-0.609756,0.243902
1548436975485,-1.033386,0.068054,0.057617,0.365854,-0.731707,0.243902
1548436975493,-1.033691,0.068237,0.058105,0.243902,-0.792683,0.243902
1548436975501,-1.035706,0.067932,0.057556,0.243902,-0.792683,0.243902
1548436975516,-1.036987,0.069275,0.056152,0.365854,-0.792683,0.182927
1548436975523,-1.037292,0.069031,0.058594,0.487805,-0.853659,0.121951
1548436975531,-1.040771,0.067017,0.059692,0.670732,-0.853659,0.060976
1548436975546,-1.039307,0.065918,0.057983,0.487805,-0.914634,0.060976
1548436975553,-1.037231,0.064575,0.057556,0.487805,-0.914634,0.121951
1548436975561,-1.035645,0.065063,0.057007,0.487805,-0.914634,0.121951
1548436975576,-1.039978,0.069519,0.058350,0.426829,-0.731707,0.121951
1548436975583,-1.038757,0.069336,0.060364,0.304878,-0.609756,0.304878
1548436975591,-1.036804,0.067078,0.057800,0.304878,-0.548781,0.304878
1548436975606,-1.037781,0.069641,0.059082,0.365854,-0.487805,0.243902
1548436975616,-1.036865,0.067871,0.059021,0.426829,-0.487805,0.243902
1548436975621,-1.036682,0.067810,0.056641,0.426829,-0.609756,0.182927
1548436975636,-1.037598,0.067505,0.054260,0.487805,-0.609756,0.121951
1548436975643,-1.036072,0.067261,0.055969,0.548781,-0.670732,0.182927
1548436975651,-1.035400,0.067566,0.056763,0.426829,-0.609756,0.243902
1548436975666,-1.034607,0.066406,0.059509,0.426829,-0.609756,0.182927
1548436975674,-1.034607,0.068359,0.060364,0.304878,-0.731707,0.121951
1548436975681,-1.036011,0.067749,0.061951,0.243902,-0.609756,0.182927
1548436975696,-1.035156,0.066345,0.060181,0.304878,-0.670732,0.182927
1548436975703,-1.033936,0.067749,0.057922,0.182927,-0.731707,0.304878
1548436975719,-1.035400,0.067871,0.060059,0.365854,-0.731707,0.304878
1548436975733,-1.036743,0.066711,0.057373,0.304878,-0.670732,0.243902
1548436975735,-1.036499,0.069824,0.056091,0.426829,-0.670732,0.243902
1548436975741,-1.036804,0.068665,0.056763,0.365854,-0.670732,0.182927
1548436975756,-1.037415,0.066711,0.057007,0.243902,-0.731707,0.243902
1548436975763,-1.036377,0.066956,0.055176,0.365854,-0.792683,0.182927
1548436975771,-1.032166,0.068909,0.057068,0.487805,-0.731707,0.121951
1548436975786,-1.035400,0.069763,0.057007,0.487805,-0.731707,0.182927
1548436975793,-1.037903,0.067932,0.056763,0.426829,-0.792683,0.182927
1548436975801,-1.037781,0.068726,0.055603,0.487805,-0.914634,0.121951
1548436975816,-1.037170,0.070740,0.053589,0.548781,-0.914634,0.060976
1548436975823,-1.038940,0.068604,0.055481,0.548781,-0.792683,0.182927
1548436975831,-1.039368,0.067139,0.055969,0.365854,-0.792683,0.182927
1548436975846,-1.037415,0.067261,0.056763,0.304878,-0.792683,0.182927
1548436975853,-1.037537,0.065674,0.059448,0.243902,-0.670732,0.182927
1548436975861,-1.037109,0.065918,0.057007,0.182927,-0.548781,0.182927
1548436975876,-1.035095,0.065491,0.060242,0.060976,-0.670732,0.182927
1548436975883,-1.036316,0.064453,0.060364,0.182927,-0.731707,0.243902
1548436975891,-1.035278,0.065857,0.059143,0.121951,-0.670732,0.243902
1548436975906,-1.037109,0.066223,0.060181,0.182927,-0.609756,0.304878
1548436975914,-1.038452,0.065674,0.059631,0.426829,-0.609756,0.243902
1548436975920,-1.036560,0.065613,0.059204,0.548781,-0.670732,0.182927
1548436975936,-1.036743,0.068481,0.059448,0.365854,-0.609756,0.243902
1548436975943,-1.036865,0.068970,0.058044,0.365854,-0.609756,0.243902
1548436975950,-1.038513,0.070312,0.055847,0.243902,-0.670732,0.182927
1548436975965,-1.040039,0.069153,0.053711,0.243902,-0.609756,0.121951
1548436975973,-1.039795,0.070251,0.056091,0.304878,-0.609756,0.121951
1548436975980,-1.035339,0.068604,0.058044,0.426829,-0.487805,0.121951
1548436975995,-1.035522,0.066650,0.058228,0.365854,-0.548781,0.060976
1548436976003,-1.034241,0.070312,0.058716,0.365854,-0.548781,0.060976
1548436976011,-1.034180,0.069763,0.059387,0.426829,-0.548781,0.121951
1548436976025,-1.032898,0.069580,0.059875,0.426829,-0.548781,0.182927
1548436976033,-1.033447,0.066833,0.058777,0.365854,-0.670732,0.182927
1548436976041,-1.033325,0.065857,0.056824,0.609756,-0.731707,0.243902
1548436976055,-1.036865,0.065125,0.057983,0.731707,-0.731707,0.182927
1548436976063,-1.038818,0.064758,0.057129,0.792683,-0.792683,0.121951
1548436976071,-1.039246,0.063721,0.056519,0.670732,-0.731707,0.121951
1548436976086,-1.041016,0.063965,0.058960,0.365854,-0.731707,0.121951
1548436976094,-1.039673,0.064941,0.058289,0.304878,-0.426829,0.182927
1548436976101,-1.038086,0.065796,0.058594,0.304878,-0.426829,0.121951
1548436976116,-1.036316,0.065063,0.058716,0.304878,-0.609756,0.182927
1548436976123,-1.035828,0.064392,0.060120,0.304878,-0.670732,0.182927
1548436976131,-1.037354,0.066650,0.058411,0.365854,-0.609756,0.243902
1548436976146,-1.035217,0.067200,0.057983,0.426829,-0.548781,0.182927
1548436976153,-1.036072,0.066162,0.057678,0.487805,-0.548781,0.243902
1548436976161,-1.036133,0.065369,0.054993,0.365854,-0.670732,0.243902
1548436976176,-1.032654,0.065552,0.058716,0.426829,-0.670732,0.121951
1548436976183,-1.033936,0.066162,0.057922,0.487805,-0.731707,0.121951
1548436976191,-1.035767,0.067688,0.057556,0.426829,-0.792683,0.182927
1548436976206,-1.037476,0.065186,0.057251,0.243902,-0.731707,0.304878
1548436976214,-1.035522,0.066162,0.055969,0.243902,-0.731707,0.304878
1548436976221,-1.036804,0.066406,0.058411,0.365854,-0.792683,0.243902
1548436976236,-1.038879,0.065674,0.056030,0.365854,-0.792683,0.182927
1548436976250,-1.037842,0.067322,0.054321,0.365854,-0.853659,0.182927
1548436976251,-1.036743,0.065308,0.057800,0.426829,-0.792683,0.121951
1548436976265,-1.037537,0.065735,0.057007,0.365854,-0.670732,0.121951
1548436976273,-1.034241,0.065186,0.056641,0.426829,-0.731707,0.121951
1548436976281,-1.034363,0.066406,0.059143,0.426829,-0.731707,0.182927
1548436976295,-1.035095,0.064575,0.058289,0.426829,-0.792683,0.182927
1548436976303,-1.035400,0.064697,0.055420,0.426829,-0.792683,0.243902
1548436976310,-1.037170,0.064819,0.054199,0.487805,-0.914634,0.243902
1548436976325,-1.038513,0.065125,0.055359,0.426829,-0.853659,0.182927
1548436976333,-1.037354,0.066589,0.056030,0.304878,-0.792683,0.121951
1548436976340,-1.038635,0.064514,0.054626,0.304878,-0.792683,0.182927
1548436976355,-1.039734,0.064392,0.054932,0.304878,-0.731707,0.243902
1548436976363,-1.037964,0.064514,0.058533,0.243902,-0.609756,0.182927
1548436976370,-1.036438,0.066284,0.058167,0.304878,-0.609756,0.121951
1548436976385,-1.036682,0.065430,0.056030,0.304878,-0.609756,0.182927
1548436976393,-1.037292,0.065735,0.058105,0.304878,-0.731707,0.243902
1548436976400,-1.037109,0.065247,0.056580,0.548781,-0.609756,0.243902
1548436976415,-1.036072,0.065186,0.056458,0.426829,-0.670732,0.182927
1548436976423,-1.037109,0.067261,0.058228,0.426829,-0.731707,0.182927
1548436976431,-1.036987,0.066650,0.056335,0.548781,-0.609756,0.182927
1548436976445,-1.036255,0.065491,0.054871,0.609756,-0.670732,0.182927
1548436976453,-1.035706,0.066345,0.054932,0.426829,-0.670732,0.243902
1548436976461,-1.035034,0.066040,0.056641,0.304878,-0.670732,0.304878
1548436976476,-1.035400,0.065002,0.057434,0.121951,-0.609756,0.304878
1548436976483,-1.033020,0.067078,0.057983,0.060976,-0.609756,0.243902
1548436976491,-1.032898,0.068542,0.057800,0.121951,-0.670732,0.243902
1548436976508,-1.035278,0.065552,0.056824,0.243902,-0.914634,0.121951
1548436976515,-1.036011,0.067627,0.057495,0.365854,-0.914634,0.060976
1548436976521,-1.037415,0.065308,0.056213,0.548781,-0.853659,0.060976
1548436976536,-1.039673,0.066406,0.057129,0.487805,-0.914634,0.060976
1548436976550,-1.038574,0.065979,0.057129,0.365854,-0.853659,0.060976
1548436976558,-1.039978,0.065735,0.058716,0.548781,-0.853659,0.060976
1548436976565,-1.038330,0.066345,0.058838,0.548781,-0.853659,0.121951
1548436976573,-1.036255,0.065186,0.056885,0.426829,-0.853659,0.182927
1548436976580,-1.034851,0.062500,0.056274,0.304878,-0.731707,0.182927
1548436976595,-1.037292,0.065491,0.057495,0.182927,-0.548781,0.304878
1548436976602,-1.034973,0.066162,0.058411,0.182927,-0.548781,0.304878
1548436976611,-1.035706,0.066101,0.056213,0.121951,-0.548781,0.304878
1548436976625,-1.035828,0.064819,0.058411,0.121951,-0.548781,0.243902
1548436976632,-1.038147,0.067261,0.058533,0.243902,-0.609756,0.304878
1548436976640,-1.036011,0.066589,0.056641,0.487805,-0.609756,0.304878
1548436976655,-1.036804,0.066711,0.057861,0.426829,-0.670732,0.121951
1548436976663,-1.036560,0.065735,0.054321,0.304878,-0.609756,0.060976
1548436976670,-1.036682,0.067810,0.055115,0.426829,-0.731707,0.121951
1548436976685,-1.036804,0.065674,0.057922,0.487805,-0.670732,0.121951
1548436976692,-1.037781,0.066345,0.056458,0.426829,-0.670732,0.121951
1548436976700,-1.037292,0.066223,0.057251,0.487805,-0.731707,0.121951
1548436976715,-1.037903,0.064209,0.054688,0.548781,-0.670732,0.243902
1548436976722,-1.037170,0.064270,0.053406,0.426829,-0.609756,0.243902
1548436976730,-1.038391,0.066650,0.054382,0.304878,-0.609756,0.243902
1548436976745,-1.036621,0.066467,0.057678,0.243902,-0.548781,0.365854
1548436976753,-1.033142,0.065735,0.059875,0.365854,-0.426829,0.243902
1548436976760,-1.034302,0.066101,0.061279,0.426829,-0.426829,0.121951
1548436976775,-1.033936,0.067566,0.058777,0.243902,-0.609756,0.060976
1548436976783,-1.032654,0.064636,0.056458,0.243902,-0.670732,0.060976
1548436976791,-1.036560,0.064941,0.059082,0.426829,-0.792683,0.060976
1548436976806,-1.035645,0.066589,0.056885,0.426829,-0.853659,0.121951
1548436976813,-1.038147,0.066772,0.054565,0.487805,-0.792683,0.182927
1548436976828,-1.037720,0.065430,0.053589,0.487805,-0.792683,0.182927
1548436976836,-1.037048,0.065002,0.055908,0.426829,-0.792683,0.121951
1548436976843,-1.036255,0.065125,0.057007,0.304878,-0.609756,0.182927
1548436976851,-1.038086,0.065002,0.057007,0.365854,-0.609756,0.182927
1548436976866,-1.037231,0.067688,0.056702,0.182927,-0.731707,0.304878
1548436976884,-1.035278,0.066956,0.059753,0.182927,-0.609756,0.304878
1548436976884,-1.032898,0.065369,0.056519,0.487805,-0.670732,0.243902
1548436976896,-1.036011,0.065613,0.055847,0.365854,-0.670732,0.243902
1548436976903,-1.036133,0.065979,0.053406,0.304878,-0.609756,0.243902
1548436976910,-1.038025,0.066833,0.054810,0.304878,-0.731707,0.243902
1548436976933,-1.036926,0.066589,0.054749,0.426829,-0.792683,0.243902
1548436976940,-1.038452,0.066162,0.057007,0.487805,-0.731707,0.121951
1548436976941,-1.037964,0.066406,0.056580,0.426829,-0.731707,0.121951
1548436976955,-1.038025,0.067810,0.057617,0.365854,-0.670732,0.182927
1548436976963,-1.036560,0.066711,0.056824,0.426829,-0.731707,0.182927
1548436976970,-1.035278,0.067200,0.055603,0.243902,-0.670732,0.121951
1548436976985,-1.035950,0.067139,0.057312,0.365854,-0.731707,0.121951
1548436976993,-1.037109,0.067627,0.058899,0.304878,-0.853659,0.121951
1548436977000,-1.036377,0.066956,0.057556,0.365854,-0.731707,0.182927
1548436977015,-1.036682,0.065613,0.056213,0.365854,-0.670732,0.121951
1548436977023,-1.037170,0.067261,0.056213,0.365854,-0.731707,0.060976
1548436977030,-1.037170,0.064880,0.054626,0.487805,-0.731707,0.060976
1548436977045,-1.035828,0.063599,0.055664,0.609756,-0.731707,0.060976
1548436977053,-1.035034,0.064148,0.054688,0.487805,-0.792683,0.121951
1548436977060,-1.036682,0.064392,0.056091,0.426829,-0.731707,0.060976
1548436977075,-1.038940,0.065796,0.055420,0.426829,-0.670732,0.121951
1548436977083,-1.039246,0.065002,0.054810,0.487805,-0.731707,0.243902
1548436977090,-1.038330,0.064270,0.055481,0.426829,-0.731707,0.243902
1548436977105,-1.036560,0.063049,0.055786,0.487805,-0.670732,0.304878
1548436977113,-1.038574,0.065125,0.054443,0.365854,-0.548781,0.365854
1548436977124,-1.038818,0.065552,0.054749,0.182927,-0.670732,0.304878
1548436977135,-1.036682,0.062195,0.056152,0.182927,-0.609756,0.365854
